File: Tensile Test Project/Tensile Test Data GNP 4.csv
Time,Force,Displacement,Stress,Strain
0,0,0.0004,0.0048,0.0009
0.1,0,0.0027,0.0048,0.0061
0.2,0.0001,0.0102,0.0084,0.023
0.3,0.0001,0.0206,0.0103,0.0466
0.4,0.0001,0.0306,0.015,0.0691
0.5,0.0001,0.0404,0.0179,0.0912
0.6,0.0002,0.0494,0.0199,0.1115
0.7,0.0002,0.0579,0.0239,0.1307
0.8,0.0002,0.0667,0.0253,0.1505
0.9,0.0002,0.0752,0.0281,0.1698
1,0.0003,0.0835,0.0312,0.1886
1.1,0.0003,0.0917,0.0322,0.2069
1.2,0.0003,0.1002,0.0357,0.2262
1.3,0.0003,0.1085,0.0372,0.245
1.4,0.0003,0.1169,0.0399,0.2638
1.5,0.0004,0.1252,0.043,0.2826
1.6,0.0004,0.1333,0.0436,0.301
1.7,0.0004,0.1421,0.0476,0.3207
1.8,0.0004,0.1508,0.0489,0.3405
1.9,0.0004,0.159,0.0508,0.3588
2,0.0004,0.1671,0.0542,0.3772
2.1,0.0004,0.1754,0.0546,0.396
2.2,0.0005,0.184,0.0579,0.4153
2.3,0.0005,0.1925,0.0603,0.4345
2.4,0.0005,0.2004,0.0615,0.4524
2.5,0.0005,0.2085,0.0649,0.4707
2.6,0.0005,0.2171,0.0656,0.49
2.7,0.0006,0.2256,0.0686,0.5093
2.8,0.0006,0.234,0.0708,0.5281
2.9,0.0006,0.2421,0.0716,0.5465
3,0.0006,0.2502,0.0749,0.5648
3.1,0.0006,0.2585,0.076,0.5836
3.2,0.0006,0.2675,0.0781,0.6038
3.3,0.0007,0.2756,0.0809,0.6222
3.4,0.0007,0.2833,0.0817,0.6396
3.5,0.0007,0.2915,0.0839,0.6579
3.6,0.0007,0.3,0.0864,0.6772
3.7,0.0007,0.3092,0.0877,0.6979
3.8,0.0007,0.3173,0.0906,0.7162
3.9,0.0007,0.325,0.0914,0.7336
4,0.0008,0.3331,0.0934,0.752
4.1,0.0008,0.3419,0.096,0.7717
4.2,0.0008,0.351,0.0971,0.7924
4.3,0.0008,0.3592,0.1001,0.8108
4.4,0.0008,0.3667,0.1012,0.8277
4.5,0.0008,0.375,0.1025,0.8465
4.6,0.0009,0.384,0.106,0.8667
4.7,0.0009,0.3927,0.1062,0.8865
4.8,0.0009,0.4006,0.1091,0.9043
4.9,0.0009,0.4083,0.1102,0.9217
5,0.0009,0.4167,0.1117,0.9406
5.1,0.0009,0.4258,0.1149,0.9612
5.2,0.0009,0.4346,0.1155,0.981
5.3,0.001,0.4423,0.1177,0.9984
5.4,0.001,0.45,0.1198,1.0158
5.5,0.001,0.4581,0.1199,1.0341
5.6,0.001,0.4675,0.1238,1.0553
5.7,0.001,0.476,0.1245,1.0746
5.8,0.001,0.4835,0.1263,1.0915
5.9,0.001,0.4912,0.1282,1.1089
6,0.0011,0.4998,0.129,1.1282
6.1,0.0011,0.509,0.1321,1.1489
6.2,0.0011,0.5175,0.1333,1.1682
6.3,0.0011,0.5254,0.1344,1.186
6.4,0.0011,0.5331,0.1369,1.2034
6.5,0.0011,0.5419,0.1373,1.2232
6.6,0.0011,0.5508,0.1401,1.2434
6.7,0.0012,0.5594,0.1419,1.2627
6.8,0.0012,0.5671,0.1427,1.2801
6.9,0.0012,0.5748,0.1452,1.2975
7,0.0012,0.5837,0.1462,1.3177
7.1,0.0012,0.5927,0.1485,1.3379
7.2,0.0012,0.6008,0.1501,1.3563
7.3,0.0012,0.6085,0.1509,1.3737
7.4,0.0013,0.6165,0.1531,1.3916
7.5,0.0013,0.6256,0.1543,1.4122
7.6,0.0013,0.6344,0.156,1.432
7.7,0.0013,0.6423,0.1583,1.4499
7.8,0.0013,0.6502,0.1588,1.4677
7.9,0.0013,0.6581,0.1607,1.4856
8,0.0013,0.6671,0.1625,1.5058
8.1,0.0013,0.6756,0.1636,1.5251
8.2,0.0014,0.684,0.1663,1.5439
8.3,0.0014,0.6919,0.1669,1.5618
8.4,0.0014,0.6998,0.1682,1.5797
8.5,0.0014,0.7087,0.1706,1.5999
8.6,0.0014,0.7173,0.1711,1.6192
8.7,0.0014,0.7254,0.1738,1.6375
8.8,0.0014,0.7333,0.1751,1.6554
8.9,0.0014,0.7417,0.1755,1.6742
9,0.0015,0.7506,0.1788,1.6944
9.1,0.0015,0.7592,0.1786,1.7137
9.2,0.0015,0.7671,0.1813,1.7316
9.3,0.0015,0.7752,0.1824,1.7499
9.4,0.0015,0.7835,0.183,1.7687
9.5,0.0015,0.7923,0.1863,1.7885
9.6,0.0015,0.8006,0.1862,1.8073
9.7,0.0015,0.8087,0.1885,1.8256
9.8,0.0016,0.8169,0.1901,1.844
9.9,0.0016,0.8254,0.1902,1.8632
10,0.0016,0.834,0.1935,1.8825
10.1,0.0016,0.8423,0.1937,1.9013
10.2,0.0016,0.8504,0.1952,1.9197
10.3,0.0016,0.8587,0.1972,1.9385
10.4,0.0016,0.8671,0.198,1.9573
10.5,0.0016,0.8756,0.2005,1.9766
10.6,0.0016,0.8837,0.201,1.9949
10.7,0.0017,0.8919,0.2034,2.0133
10.8,0.0017,0.9002,0.204,2.0321
10.9,0.0017,0.9085,0.2053,2.0509
11,0.0017,0.9169,0.2069,2.0697
11.1,0.0017,0.9252,0.2084,2.0885
11.2,0.0017,0.9335,0.209,2.1073
11.3,0.0017,0.9421,0.2114,2.1266
11.4,0.0017,0.9504,0.2121,2.1454
11.5,0.0017,0.9587,0.214,2.1642
11.6,0.0018,0.9671,0.2151,2.183
11.7,0.0018,0.9754,0.2162,2.2018
11.8,0.0018,0.9842,0.2182,2.2216
11.9,0.0018,0.9921,0.219,2.2395
12,0.0018,1.0004,0.2201,2.2583
12.1,0.0018,1.0087,0.2223,2.2771
12.2,0.0018,1.0173,0.2225,2.2964
12.3,0.0018,1.0258,0.2251,2.3157
12.4,0.0018,1.0335,0.2259,2.3331
12.5,0.0019,1.0419,0.2267,2.3519
12.6,0.0019,1.0504,0.2287,2.3711
12.7,0.0019,1.059,0.2295,2.3904
12.8,0.0019,1.0675,0.2309,2.4097
12.9,0.0019,1.0754,0.2325,2.4276
13,0.0019,1.0833,0.2327,2.4454
13.1,0.0019,1.0917,0.2353,2.4643
13.2,0.0019,1.1006,0.236,2.4845
13.3,0.0019,1.109,0.2373,2.5033
13.4,0.002,1.1169,0.2395,2.5212
13.5,0.002,1.125,0.2388,2.5395
13.6,0.002,1.1333,0.2415,2.5583
13.7,0.002,1.1425,0.2424,2.579
13.8,0.002,1.1506,0.2435,2.5973
13.9,0.002,1.1583,0.2455,2.6147
14,0.002,1.1665,0.2454,2.6331
14.1,0.002,1.1752,0.2479,2.6528
14.2,0.002,1.1844,0.2489,2.6735
14.3,0.002,1.1925,0.2496,2.6919
14.4,0.0021,1.2,0.2517,2.7088
14.5,0.0021,1.2083,0.2515,2.7276
14.6,0.0021,1.2173,0.2539,2.7478
14.7,0.0021,1.226,0.2551,2.7676
14.8,0.0021,1.234,0.2556,2.7855
14.9,0.0021,1.2415,0.2572,2.8024
15,0.0021,1.2498,0.258,2.8212
15.1,0.0021,1.259,0.2591,2.8419
15.2,0.0021,1.2677,0.2613,2.8616
15.3,0.0021,1.2756,0.2612,2.8795
15.4,0.0022,1.2831,0.2632,2.8964
15.5,0.0022,1.2917,0.2636,2.9157
15.6,0.0022,1.3008,0.2653,2.9364
15.7,0.0022,1.3094,0.2672,2.9557
15.8,0.0022,1.3169,0.2675,2.9726
15.9,0.0022,1.3246,0.2686,2.99
16,0.0022,1.3331,0.2701,3.0093
16.1,0.0022,1.3423,0.2707,3.03
16.2,0.0022,1.351,0.2728,3.0498
16.3,0.0022,1.3587,0.2733,3.0672
16.4,0.0022,1.3665,0.2737,3.0846
16.5,0.0023,1.375,0.2757,3.1038
16.6,0.0023,1.3842,0.276,3.1245
16.7,0.0023,1.3927,0.2785,3.1438
16.8,0.0023,1.4004,0.279,3.1612
16.9,0.0023,1.4081,0.279,3.1786
17,0.0023,1.4171,0.2816,3.1988
17.1,0.0023,1.4258,0.2818,3.2186
17.2,0.0023,1.434,0.2833,3.2369
17.3,0.0023,1.4421,0.2847,3.2553
17.4,0.0023,1.4498,0.2842,3.2727
17.5,0.0023,1.4587,0.2874,3.2929
17.6,0.0023,1.4677,0.2873,3.3131
17.7,0.0024,1.4756,0.2885,3.331
17.8,0.0024,1.4837,0.2902,3.3493
17.9,0.0024,1.4915,0.2893,3.3667
18,0.0024,1.5006,0.2927,3.3874
18.1,0.0024,1.5092,0.2922,3.4067
18.2,0.0024,1.5173,0.2935,3.425
18.3,0.0024,1.5252,0.2952,3.4429
18.4,0.0024,1.5331,0.2947,3.4608
18.5,0.0024,1.5421,0.2974,3.481
18.6,0.0024,1.5506,0.2976,3.5003
18.7,0.0024,1.5587,0.2985,3.5186
18.8,0.0025,1.5667,0.3002,3.5365
18.9,0.0025,1.5752,0.3001,3.5558
19,0.0025,1.584,0.3019,3.5755
19.1,0.0025,1.5923,0.3033,3.5943
19.2,0.0025,1.6004,0.3029,3.6127
19.3,0.0025,1.6085,0.3055,3.631
19.4,0.0025,1.6169,0.3052,3.6498
19.5,0.0025,1.6256,0.307,3.6696
19.6,0.0025,1.634,0.3082,3.6884
19.7,0.0025,1.6419,0.3082,3.7063
19.8,0.0025,1.6502,0.3095,3.7251
19.9,0.0025,1.6587,0.3109,3.7444
20,0.0025,1.6673,0.3109,3.7636
20.1,0.0026,1.6756,0.3133,3.7824
20.2,0.0026,1.6837,0.3126,3.8008
20.3,0.0026,1.6921,0.3145,3.8196
20.4,0.0026,1.7006,0.3155,3.8389
20.5,0.0026,1.709,0.3158,3.8577
20.6,0.0026,1.7171,0.3179,3.876
20.7,0.0026,1.7252,0.3176,3.8944
20.8,0.0026,1.7337,0.3191,3.9137
20.9,0.0026,1.7421,0.3202,3.9325
21,0.0026,1.7504,0.3207,3.9513
21.1,0.0026,1.7583,0.3219,3.9691
21.2,0.0026,1.7667,0.3227,3.988
21.3,0.0026,1.7754,0.3233,4.0077
21.4,0.0027,1.784,0.3254,4.027
21.5,0.0027,1.7921,0.325,4.0453
21.6,0.0027,1.8002,0.3263,4.0637
21.7,0.0027,1.8085,0.3277,4.0825
21.8,0.0027,1.8175,0.3274,4.1027
21.9,0.0027,1.8256,0.33,4.121
22,0.0027,1.8337,0.3296,4.1394
22.1,0.0027,1.8419,0.3306,4.1577
22.2,0.0027,1.8502,0.3325,4.1765
22.3,0.0027,1.8592,0.3315,4.1968
22.4,0.0027,1.8673,0.3343,4.2151
22.5,0.0027,1.8754,0.3336,4.2334
22.6,0.0027,1.8835,0.3346,4.2518
22.7,0.0028,1.8921,0.3365,4.2711
22.8,0.0027,1.9008,0.3361,4.2908
22.9,0.0028,1.909,0.3378,4.3092
23,0.0028,1.9169,0.3386,4.327
23.1,0.0028,1.925,0.3385,4.3454
23.2,0.0028,1.934,0.3408,4.3656
23.3,0.0028,1.9423,0.3404,4.3844
23.4,0.0028,1.9502,0.342,4.4023
23.5,0.0028,1.9581,0.3425,4.4201
23.6,0.0028,1.9667,0.343,4.4394
23.7,0.0028,1.9756,0.3447,4.4596
23.8,0.0028,1.984,0.3452,4.4785
23.9,0.0028,1.9919,0.3458,4.4963
24,0.0028,2,0.3469,4.5147
24.1,0.0028,2.0085,0.3473,4.534
24.2,0.0029,2.0175,0.3487,4.5542
24.3,0.0029,2.0258,0.3495,4.573
24.4,0.0029,2.0333,0.3494,4.5899
24.5,0.0029,2.0417,0.3513,4.6087
24.6,0.0029,2.0504,0.3513,4.6285
24.7,0.0029,2.0592,0.3527,4.6482
24.8,0.0029,2.0675,0.354,4.667
24.9,0.0029,2.0752,0.3531,4.6844
25,0.0029,2.0833,0.3553,4.7028
25.1,0.0029,2.0923,0.3552,4.723
25.2,0.0029,2.1008,0.356,4.7423
25.3,0.0029,2.109,0.3578,4.7606
25.4,0.0029,2.1167,0.3568,4.778
25.5,0.0029,2.125,0.359,4.7968
25.6,0.0029,2.134,0.3595,4.8171
25.7,0.0029,2.1425,0.3598,4.8363
25.8,0.003,2.1504,0.3618,4.8542
25.9,0.003,2.1581,0.3609,4.8716
26,0.003,2.1667,0.3623,4.8909
26.1,0.003,2.1756,0.364,4.9111
26.2,0.003,2.1842,0.3632,4.9304
26.3,0.003,2.1921,0.3655,4.9483
26.4,0.003,2.1998,0.365,4.9657
26.5,0.003,2.2085,0.366,4.9854
26.6,0.003,2.2175,0.3677,5.0056
26.7,0.003,2.226,0.3671,5.0249
26.8,0.003,2.2337,0.3691,5.0423
26.9,0.003,2.2412,0.3686,5.0593
27,0.003,2.2502,0.3695,5.0795
27.1,0.003,2.2592,0.3714,5.0997
27.2,0.003,2.2675,0.3708,5.1185
27.3,0.003,2.2754,0.3726,5.1364
27.4,0.003,2.2831,0.3724,5.1538
27.5,0.0031,2.2921,0.3732,5.174
27.6,0.0031,2.301,0.3751,5.1942
27.7,0.0031,2.309,0.3748,5.2121
27.8,0.0031,2.3169,0.3755,5.23
27.9,0.0031,2.325,0.3767,5.2483
28,0.0031,2.334,0.3766,5.2685
28.1,0.0031,2.3423,0.3788,5.2873
28.2,0.0031,2.3504,0.3785,5.3057
28.3,0.0031,2.3585,0.379,5.324
28.4,0.0031,2.3667,0.3805,5.3424
28.5,0.0031,2.3754,0.3805,5.3621
28.6,0.0031,2.384,0.3817,5.3814
28.7,0.0031,2.3921,0.3824,5.3997
28.8,0.0031,2.4,0.3822,5.4176
28.9,0.0031,2.4085,0.3842,5.4369
29,0.0031,2.4173,0.384,5.4566
29.1,0.0031,2.4256,0.3851,5.4755
29.2,0.0032,2.4337,0.3862,5.4938
29.3,0.0032,2.4419,0.3853,5.5121
29.4,0.0032,2.4502,0.3878,5.5309
29.5,0.0032,2.459,0.3876,5.5507
29.6,0.0032,2.4671,0.3886,5.569
29.7,0.0032,2.4752,0.3899,5.5874
29.8,0.0032,2.4835,0.389,5.6062
29.9,0.0032,2.4921,0.391,5.6255
30,0.0032,2.5006,0.3916,5.6448
30.1,0.0032,2.509,0.3911,5.6636
30.2,0.0032,2.5169,0.3934,5.6814
30.3,0.0032,2.5254,0.3923,5.7007
30.4,0.0032,2.534,0.3943,5.72
30.5,0.0032,2.5423,0.3947,5.7388
30.6,0.0032,2.5502,0.3946,5.7567
30.7,0.0032,2.5583,0.3965,5.775
30.8,0.0032,2.5669,0.3962,5.7943
30.9,0.0032,2.5754,0.397,5.8136
31,0.0033,2.5835,0.3985,5.8319
31.1,0.0033,2.5917,0.3977,5.8503
31.2,0.0033,2.6,0.3994,5.8691
31.3,0.0033,2.6087,0.3995,5.8888
31.4,0.0033,2.6173,0.4003,5.9081
31.5,0.0033,2.6254,0.4016,5.9264
31.6,0.0033,2.6335,0.4011,5.9448
31.7,0.0033,2.6419,0.4026,5.9636
31.8,0.0033,2.6508,0.4032,5.9838
31.9,0.0033,2.659,0.4034,6.0022
32,0.0033,2.6671,0.4047,6.0205
32.1,0.0033,2.6752,0.4046,6.0388
32.2,0.0033,2.6837,0.4053,6.0581
32.3,0.0033,2.6923,0.4067,6.0774
32.4,0.0033,2.7004,0.4063,6.0957
32.5,0.0033,2.7085,0.4076,6.1141
32.6,0.0033,2.7169,0.408,6.1329
32.7,0.0033,2.7254,0.4079,6.1522
32.8,0.0034,2.7342,0.4101,6.1719
32.9,0.0033,2.7423,0.409,6.1903
33,0.0034,2.7502,0.4105,6.2081
33.1,0.0034,2.7583,0.4111,6.2265
33.2,0.0034,2.7673,0.4108,6.2467
33.3,0.0034,2.7756,0.4131,6.2655
33.4,0.0034,2.7835,0.4124,6.2834
33.5,0.0034,2.7915,0.413,6.3013
33.6,0.0034,2.8,0.4146,6.3205
33.7,0.0034,2.809,0.4138,6.3408
33.8,0.0034,2.8173,0.4163,6.3596
33.9,0.0034,2.8252,0.415,6.3774
34,0.0034,2.8333,0.4163,6.3958
34.1,0.0034,2.8419,0.4172,6.4151
34.2,0.0034,2.8508,0.4171,6.4353
34.3,0.0034,2.8592,0.4188,6.4541
34.4,0.0034,2.8669,0.4184,6.4715
34.5,0.0034,2.875,0.419,6.4898
34.6,0.0034,2.8837,0.4202,6.5096
34.7,0.0034,2.8925,0.4204,6.5293
34.8,0.0034,2.9006,0.4216,6.5477
34.9,0.0034,2.9083,0.4215,6.5651
35,0.0034,2.9165,0.4215,6.5834
35.1,0.0035,2.9256,0.4234,6.6041
35.2,0.0035,2.9344,0.4229,6.6239
35.3,0.0035,2.9423,0.4242,6.6417
35.4,0.0035,2.95,0.4245,6.6591
35.5,0.0035,2.9583,0.4241,6.678
35.6,0.0035,2.9673,0.4263,6.6982
35.7,0.0035,2.9758,0.4262,6.7175
35.8,0.0035,2.9837,0.4265,6.7353
35.9,0.0035,2.9915,0.4273,6.7527
36,0.0035,3,0.4271,6.772
36.1,0.0035,3.009,0.4285,6.7922
36.2,0.0035,3.0175,0.429,6.8115
36.3,0.0035,3.0254,0.4287,6.8294
36.4,0.0035,3.0331,0.4302,6.8468
36.5,0.0035,3.0417,0.4297,6.8661
36.6,0.0035,3.0506,0.431,6.8863
36.7,0.0035,3.0592,0.4324,6.9056
36.8,0.0035,3.0671,0.4312,6.9234
36.9,0.0035,3.0748,0.4327,6.9408
37,0.0035,3.0837,0.433,6.9611
37.1,0.0035,3.0925,0.4338,6.9808
37.2,0.0036,3.1008,0.4348,6.9996
37.3,0.0036,3.1085,0.4344,7.017
37.4,0.0036,3.1165,0.435,7.0349
37.5,0.0036,3.1254,0.4359,7.0551
37.6,0.0036,3.1344,0.4361,7.0753
37.7,0.0036,3.1423,0.4377,7.0932
37.8,0.0036,3.1502,0.4364,7.1111
37.9,0.0036,3.1583,0.438,7.1294
38,0.0036,3.1671,0.4388,7.1492
38.1,0.0036,3.1756,0.4385,7.1685
38.2,0.0036,3.1837,0.4403,7.1868
38.3,0.0036,3.1917,0.4394,7.2047
38.4,0.0036,3.1998,0.4402,7.223
38.5,0.0036,3.2087,0.4415,7.2432
38.6,0.0036,3.2173,0.441,7.2625
38.7,0.0036,3.2254,0.4427,7.2808
38.8,0.0036,3.2333,0.4422,7.2987
38.9,0.0036,3.2417,0.4428,7.3175
39,0.0036,3.2506,0.4443,7.3378
39.1,0.0036,3.259,0.4437,7.3566
39.2,0.0036,3.2671,0.4452,7.3749
39.3,0.0036,3.2752,0.4449,7.3932
39.4,0.0036,3.2835,0.4455,7.4121
39.5,0.0037,3.2923,0.4467,7.4318
39.6,0.0037,3.3006,0.4467,7.4506
39.7,0.0037,3.3087,0.4473,7.469
39.8,0.0037,3.3169,0.4478,7.4873
39.9,0.0037,3.3254,0.4478,7.5066
40,0.0037,3.334,0.4494,7.5259
40.1,0.0037,3.3423,0.4491,7.5447
40.2,0.0037,3.3502,0.4496,7.5625
40.3,0.0037,3.3587,0.4507,7.5818
40.4,0.0037,3.3671,0.4501,7.6006
40.5,0.0037,3.3756,0.4515,7.6199
40.6,0.0037,3.3837,0.4519,7.6383
40.7,0.0037,3.3919,0.4517,7.6566
40.8,0.0037,3.4002,0.4531,7.6754
40.9,0.0037,3.4085,0.453,7.6942
41,0.0037,3.4169,0.4532,7.713
41.1,0.0037,3.425,0.4546,7.7314
41.2,0.0037,3.4333,0.4533,7.7502
41.3,0.0037,3.4419,0.4558,7.7695
41.4,0.0037,3.4502,0.4551,7.7883
41.5,0.0037,3.4585,0.4558,7.8071
41.6,0.0037,3.4669,0.4574,7.8259
41.7,0.0037,3.4754,0.456,7.8452
41.8,0.0037,3.4842,0.4585,7.8649
41.9,0.0037,3.4923,0.4578,7.8833
42,0.0037,3.5004,0.458,7.9016
42.1,0.0038,3.5087,0.4597,7.9204
42.2,0.0037,3.5173,0.4583,7.9397
42.3,0.0038,3.5258,0.4605,7.959
42.4,0.0038,3.534,0.4604,7.9773
42.5,0.0038,3.5419,0.4601,7.9952
42.6,0.0038,3.5504,0.462,8.0145
42.7,0.0038,3.559,0.461,8.0338
42.8,0.0038,3.5675,0.4627,8.053
42.9,0.0038,3.5754,0.4626,8.0709
43,0.0038,3.5835,0.4624,8.0893
43.1,0.0038,3.5917,0.4636,8.1076
43.2,0.0038,3.6006,0.464,8.1278
43.3,0.0038,3.609,0.4644,8.1466
43.4,0.0038,3.6167,0.4655,8.164
43.5,0.0038,3.6248,0.4646,8.1824
43.6,0.0038,3.6333,0.4659,8.2017
43.7,0.0038,3.6425,0.4665,8.2223
43.8,0.0038,3.6506,0.4664,8.2407
43.9,0.0038,3.6583,0.4675,8.2581
44,0.0038,3.6667,0.4669,8.2769
44.1,0.0038,3.6754,0.468,8.2967
44.2,0.0038,3.6844,0.4692,8.3169
44.3,0.0038,3.6925,0.4686,8.3352
44.4,0.0038,3.7,0.4695,8.3521
44.5,0.0038,3.7083,0.4697,8.371
44.6,0.0038,3.7171,0.4697,8.3907
44.7,0.0039,3.726,0.4717,8.4109
44.8,0.0038,3.734,0.4706,8.4288
44.9,0.0039,3.7415,0.4713,8.4457
45,0.0039,3.7498,0.4723,8.4645
45.1,0.0039,3.759,0.472,8.4852
45.2,0.0039,3.7677,0.4741,8.505
45.3,0.0039,3.7756,0.4732,8.5229
45.4,0.0039,3.7833,0.4736,8.5403
45.5,0.0039,3.7917,0.4745,8.5591
45.6,0.0039,3.8006,0.4738,8.5793
45.7,0.0039,3.8094,0.4761,8.599
45.8,0.0039,3.8171,0.4753,8.6164
45.9,0.0039,3.8246,0.4753,8.6334
46,0.0039,3.8331,0.4771,8.6527
46.1,0.0039,3.8423,0.4761,8.6733
46.2,0.0039,3.8508,0.4783,8.6926
46.3,0.0039,3.8587,0.4777,8.7105
46.4,0.0039,3.8662,0.4776,8.7274
46.5,0.0039,3.875,0.479,8.7472
46.6,0.0039,3.8842,0.4785,8.7679
46.7,0.0039,3.8927,0.4804,8.7872
46.8,0.0039,3.9004,0.4799,8.8046
46.9,0.0039,3.9081,0.479,8.822
47,0.0039,3.9171,0.4814,8.8422
47.1,0.0039,3.926,0.4808,8.8624
47.2,0.0039,3.9342,0.4818,8.8807
47.3,0.0039,3.9421,0.4821,8.8986
47.4,0.0039,3.9498,0.4815,8.916
47.5,0.0039,3.9587,0.4828,8.9362
47.6,0.004,3.9677,0.4835,8.9565
47.7,0.004,3.9756,0.4832,8.9743
47.8,0.004,3.9835,0.4843,8.9922
47.9,0.004,3.9915,0.4839,9.0101
48,0.004,4.0004,0.4846,9.0303
48.1,0.004,4.0092,0.4862,9.05
48.2,0.004,4.0173,0.4848,9.0684
48.3,0.004,4.0252,0.4868,9.0862
48.4,0.004,4.0333,0.4858,9.1046
48.5,0.004,4.0421,0.4872,9.1243
48.6,0.004,4.0506,0.4879,9.1436
48.7,0.004,4.0587,0.4874,9.162
48.8,0.004,4.0667,0.4884,9.1798
48.9,0.004,4.0752,0.4886,9.1991
49,0.004,4.084,0.4889,9.2189
49.1,0.004,4.0923,0.4903,9.2377
49.2,0.004,4.1004,0.4894,9.256
49.3,0.004,4.1085,0.4903,9.2744
49.4,0.004,4.1171,0.4912,9.2936
49.5,0.004,4.1256,0.4905,9.3129
49.6,0.004,4.134,0.4928,9.3317
49.7,0.004,4.1419,0.4915,9.3496
49.8,0.004,4.1502,0.4922,9.3684
49.9,0.004,4.1587,0.4935,9.3877
50,0.004,4.1675,0.4924,9.4074
50.1,0.004,4.1754,0.4945,9.4253
50.2,0.004,4.1833,0.4934,9.4432
50.3,0.004,4.1919,0.4943,9.4625
50.4,0.0041,4.2004,0.4954,9.4818
50.5,0.004,4.2087,0.4951,9.5006
50.6,0.0041,4.2171,0.4955,9.5194
50.7,0.0041,4.2252,0.4968,9.5377
50.8,0.0041,4.2337,0.4958,9.557
50.9,0.0041,4.2421,0.4974,9.5758
51,0.0041,4.2502,0.4971,9.5941
51.1,0.0041,4.2583,0.4976,9.6125
51.2,0.0041,4.2667,0.4984,9.6313
51.3,0.0041,4.2754,0.4982,9.6511
51.4,0.0041,4.2837,0.4994,9.6699
51.5,0.0041,4.2921,0.4994,9.6887
51.6,0.0041,4.3002,0.4994,9.707
51.7,0.0041,4.3087,0.5005,9.7263
51.8,0.0041,4.3175,0.5007,9.746
51.9,0.0041,4.3254,0.5011,9.7639
52,0.0041,4.3335,0.5018,9.7823
52.1,0.0041,4.3417,0.5013,9.8006
52.2,0.0041,4.3504,0.5028,9.8204
52.3,0.0041,4.3592,0.5028,9.8401
52.4,0.0041,4.3671,0.5029,9.858
52.5,0.0041,4.3752,0.5038,9.8763
52.6,0.0041,4.3835,0.5031,9.8951
52.7,0.0041,4.3921,0.5046,9.9144
52.8,0.0041,4.4008,0.5049,9.9342
52.9,0.0041,4.409,0.5045,9.9525
53,0.0041,4.4169,0.5062,9.9704
53.1,0.0041,4.425,0.505,9.9887
53.2,0.0041,4.434,0.5067,10.0089
53.3,0.0041,4.4423,0.5072,10.0277
53.4,0.0041,4.4502,0.506,10.0456
53.5,0.0042,4.4581,0.5079,10.0635
53.6,0.0041,4.4667,0.507,10.0828
53.7,0.0042,4.4758,0.5082,10.1035
53.8,0.0042,4.4842,0.5092,10.1223
53.9,0.0042,4.4917,0.5082,10.1392
54,0.0042,4.5,0.5097,10.158
54.1,0.0042,4.5087,0.5094,10.1778
54.2,0.0042,4.5177,0.5102,10.198
54.3,0.0042,4.5258,0.5112,10.2163
54.4,0.0042,4.5331,0.51,10.2328
54.5,0.0042,4.5417,0.5111,10.2521
54.6,0.0042,4.5504,0.5116,10.2718
54.7,0.0042,4.5594,0.5117,10.292
54.8,0.0042,4.5673,0.5129,10.3099
54.9,0.0042,4.5748,0.5123,10.3268
55,0.0042,4.5831,0.513,10.3457
55.1,0.0042,4.5925,0.5141,10.3668
55.2,0.0042,4.601,0.514,10.3861
55.3,0.0042,4.609,0.515,10.404
55.4,0.0042,4.6165,0.5145,10.4209
55.5,0.0042,4.6248,0.5147,10.4397
55.6,0.0042,4.634,0.5162,10.4604
55.7,0.0042,4.6427,0.516,10.4802
55.8,0.0042,4.6504,0.5163,10.4976
55.9,0.0042,4.6579,0.5169,10.5145
56,0.0042,4.6665,0.5159,10.5338
56.1,0.0042,4.6758,0.5184,10.5549
56.2,0.0042,4.6844,0.5179,10.5742
56.3,0.0042,4.6921,0.5182,10.5916
56.4,0.0042,4.6998,0.5188,10.609
56.5,0.0042,4.7083,0.5182,10.6283
56.6,0.0043,4.7173,0.5201,10.6485
56.7,0.0043,4.726,0.5204,10.6683
56.8,0.0042,4.7337,0.5197,10.6857
56.9,0.0043,4.7415,0.5212,10.7031
57,0.0043,4.7504,0.5206,10.7233
57.1,0.0043,4.7594,0.5216,10.7435
57.2,0.0043,4.7675,0.5223,10.7618
57.3,0.0043,4.7752,0.5214,10.7792
57.4,0.0043,4.7829,0.5226,10.7967
57.5,0.0043,4.7921,0.5225,10.8173
57.6,0.0043,4.801,0.5236,10.8376
57.7,0.0043,4.809,0.5246,10.8554
57.8,0.0043,4.8171,0.5235,10.8738
57.9,0.0043,4.825,0.5247,10.8916
58,0.0043,4.834,0.5248,10.9119
58.1,0.0043,4.8425,0.5251,10.9311
58.2,0.0043,4.8504,0.5263,10.949
58.3,0.0043,4.8585,0.5256,10.9674
58.4,0.0043,4.8667,0.5262,10.9857
58.5,0.0043,4.8754,0.5271,11.0055
58.6,0.0043,4.8842,0.527,11.0252
58.7,0.0043,4.8921,0.5282,11.0431
58.8,0.0043,4.9,0.5276,11.0609
58.9,0.0043,4.9083,0.5278,11.0798
59,0.0043,4.9171,0.5294,11.0995
59.1,0.0043,4.9256,0.5288,11.1188
59.2,0.0043,4.9335,0.5297,11.1367
59.3,0.0043,4.9419,0.5301,11.1555
59.4,0.0043,4.9502,0.5299,11.1743
59.5,0.0043,4.959,0.5315,11.194
59.6,0.0043,4.9673,0.5309,11.2128
59.7,0.0043,4.9752,0.5316,11.2307
59.8,0.0043,4.9835,0.532,11.2495
59.9,0.0043,4.9923,0.5317,11.2693
60,0.0044,5.0006,0.533,11.2881
60.1,0.0044,5.009,0.5332,11.3069
60.2,0.0044,5.0169,0.5326,11.3248
60.3,0.0044,5.0254,0.5347,11.3441
60.4,0.0044,5.034,0.5335,11.3633
60.5,0.0044,5.0423,0.5353,11.3821
60.6,0.0044,5.0504,0.5349,11.4005
60.7,0.0044,5.0585,0.5346,11.4188
60.8,0.0044,5.0669,0.5365,11.4376
60.9,0.0044,5.0754,0.5351,11.4569
61,0.0044,5.0837,0.5367,11.4757
61.1,0.0044,5.0919,0.537,11.4941
61.2,0.0044,5.1,0.5361,11.5124
61.3,0.0044,5.1087,0.5383,11.5322
61.4,0.0044,5.1171,0.5376,11.551
61.5,0.0044,5.1252,0.538,11.5693
61.6,0.0044,5.1335,0.539,11.5881
61.7,0.0044,5.1419,0.5381,11.6069
61.8,0.0044,5.1508,0.5401,11.6272
61.9,0.0044,5.1587,0.5397,11.645
62,0.0044,5.1669,0.5401,11.6634
62.1,0.0044,5.1752,0.5408,11.6822
62.2,0.0044,5.1837,0.5403,11.7015
62.3,0.0044,5.1925,0.5415,11.7212
62.4,0.0044,5.2006,0.5419,11.7396
62.5,0.0044,5.2085,0.5412,11.7574
62.6,0.0044,5.2169,0.5422,11.7762
62.7,0.0044,5.2254,0.5425,11.7955
62.8,0.0044,5.2342,0.5428,11.8153
62.9,0.0044,5.2423,0.5439,11.8336
63,0.0044,5.2502,0.5428,11.8515
63.1,0.0044,5.2583,0.5442,11.8698
63.2,0.0045,5.2673,0.5444,11.89
63.3,0.0045,5.2754,0.5446,11.9084
63.4,0.0045,5.2835,0.5454,11.9267
63.5,0.0045,5.2915,0.5447,11.9446
63.6,0.0045,5.3,0.5455,11.9639
63.7,0.0045,5.309,0.5467,11.9841
63.8,0.0045,5.3175,0.5459,12.0034
63.9,0.0045,5.3252,0.5474,12.0208
64,0.0045,5.3333,0.5468,12.0391
64.1,0.0045,5.3419,0.5469,12.0584
64.2,0.0045,5.351,0.5489,12.0791
64.3,0.0045,5.359,0.5474,12.097
64.4,0.0045,5.3667,0.549,12.1144
64.5,0.0045,5.375,0.5485,12.1332
64.6,0.0045,5.3837,0.5488,12.1529
64.7,0.0045,5.3925,0.5506,12.1727
64.8,0.0045,5.4006,0.5497,12.191
64.9,0.0045,5.4083,0.5502,12.2084
65,0.0045,5.4167,0.5508,12.2272
65.1,0.0045,5.4258,0.5503,12.2479
65.2,0.0045,5.4344,0.5523,12.2672
65.3,0.0045,5.4423,0.5514,12.2851
65.4,0.0045,5.45,0.5514,12.3025
65.5,0.0045,5.4583,0.5524,12.3213
65.6,0.0045,5.4675,0.5524,12.342
65.7,0.0045,5.476,0.5536,12.3613
65.8,0.0045,5.4837,0.5533,12.3787
65.9,0.0045,5.4915,0.5532,12.3961
66,0.0045,5.5,0.5542,12.4153
66.1,0.0045,5.5092,0.5544,12.436
66.2,0.0045,5.5177,0.5549,12.4553
66.3,0.0045,5.5254,0.5556,12.4727
66.4,0.0045,5.5331,0.5545,12.4901
66.5,0.0045,5.5419,0.556,12.5099
66.6,0.0045,5.5508,0.5561,12.5301
66.7,0.0045,5.5594,0.5565,12.5494
66.8,0.0046,5.5671,0.5569,12.5668
66.9,0.0045,5.5748,0.5558,12.5842
67,0.0046,5.5835,0.5575,12.6039
67.1,0.0046,5.5927,0.5581,12.6246
67.2,0.0046,5.6008,0.5577,12.643
67.3,0.0046,5.6087,0.559,12.6608
67.4,0.0046,5.6165,0.5581,12.6782
67.5,0.0046,5.6256,0.5591,12.6989
67.6,0.0046,5.6344,0.5607,12.7187
67.7,0.0046,5.6423,0.559,12.7365
67.8,0.0046,5.6502,0.5607,12.7544
67.9,0.0046,5.6581,0.5598,12.7723
68,0.0046,5.6673,0.5605,12.793
68.1,0.0046,5.6758,0.562,12.8123
68.2,0.0046,5.684,0.5609,12.8306
68.3,0.0046,5.6917,0.5623,12.848
68.4,0.0046,5.6998,0.562,12.8663
68.5,0.0046,5.7087,0.5623,12.8866
68.6,0.0046,5.7173,0.5636,12.9058
68.7,0.0046,5.7254,0.563,12.9242
68.8,0.0046,5.7331,0.5632,12.9416
68.9,0.0046,5.7417,0.5643,12.9609
69,0.0046,5.7504,0.5639,12.9806
69.1,0.0046,5.759,0.5655,12.9999
69.2,0.0046,5.7671,0.5648,13.0182
69.3,0.0046,5.7752,0.5653,13.0366
69.4,0.0046,5.7835,0.566,13.0554
69.5,0.0046,5.7923,0.5657,13.0751
69.6,0.0046,5.8006,0.5667,13.094
69.7,0.0046,5.8085,0.5664,13.1118
69.8,0.0046,5.8169,0.5665,13.1306
69.9,0.0046,5.8254,0.5673,13.1499
70,0.0046,5.834,0.568,13.1692
70.1,0.0046,5.8423,0.5676,13.188
70.2,0.0047,5.8502,0.5691,13.2059
70.3,0.0046,5.8587,0.5681,13.2252
70.4,0.0047,5.8671,0.5696,13.244
70.5,0.0047,5.8756,0.5696,13.2633
70.6,0.0047,5.8837,0.5689,13.2816
70.7,0.0047,5.8919,0.5708,13.2999
70.8,0.0047,5.9002,0.5695,13.3188
70.9,0.0047,5.9087,0.5707,13.338
71,0.0047,5.9171,0.5714,13.3568
71.1,0.0047,5.9252,0.5702,13.3752
71.2,0.0047,5.9333,0.5717,13.3935
71.3,0.0047,5.9419,0.5722,13.4128
71.4,0.0047,5.9502,0.5715,13.4316
71.5,0.0047,5.9585,0.5734,13.4504
71.6,0.0047,5.9667,0.572,13.4688
71.7,0.0047,5.9752,0.5738,13.4881
71.8,0.0047,5.984,0.5734,13.5078
71.9,0.0047,5.9921,0.5738,13.5261
72,0.0047,6.0002,0.5747,13.5445
72.1,0.0047,6.0085,0.5737,13.5633
72.2,0.0047,6.0171,0.5749,13.5826
72.3,0.0047,6.0258,0.5754,13.6023
72.4,0.0047,6.034,0.575,13.6207
72.5,0.0047,6.0421,0.5759,13.639
72.6,0.0047,6.0504,0.576,13.6578
72.7,0.0047,6.059,0.5763,13.6771
72.8,0.0047,6.0675,0.5774,13.6964
72.9,0.0047,6.0756,0.5767,13.7147
73,0.0047,6.0835,0.5775,13.7326
73.1,0.0047,6.0917,0.5771,13.7509
73.2,0.0047,6.1006,0.5779,13.7712
73.3,0.0047,6.109,0.5787,13.79
73.4,0.0047,6.1169,0.5781,13.8078
73.5,0.0047,6.125,0.5783,13.8262
73.6,0.0047,6.1333,0.5794,13.845
73.7,0.0047,6.1425,0.5792,13.8657
73.8,0.0047,6.1506,0.5806,13.884
73.9,0.0047,6.1583,0.5799,13.9014
74,0.0047,6.1665,0.5801,13.9198
74.1,0.0048,6.1752,0.5813,13.9395
74.2,0.0047,6.1844,0.5807,13.9602
74.3,0.0048,6.1923,0.5822,13.9781
74.4,0.0048,6.2,0.5815,13.9955
74.5,0.0048,6.2081,0.5814,14.0138
74.6,0.0048,6.2171,0.5836,14.034
74.7,0.0048,6.226,0.5828,14.0543
74.8,0.0048,6.234,0.5834,14.0721
74.9,0.0048,6.2417,0.5837,14.0895
75,0.0048,6.25,0.5825,14.1084
75.1,0.0048,6.2592,0.5849,14.129
75.2,0.0048,6.2677,0.5843,14.1483
75.3,0.0048,6.2754,0.5846,14.1657
75.4,0.0048,6.2831,0.5853,14.1831
75.5,0.0048,6.2915,0.5841,14.2019
75.6,0.0048,6.3006,0.5866,14.2226
75.7,0.0048,6.3094,0.5861,14.2424
75.8,0.0048,6.3173,0.5863,14.2603
75.9,0.0048,6.3248,0.5868,14.2772
76,0.0048,6.3331,0.5862,14.296
76.1,0.0048,6.3423,0.5876,14.3167
76.2,0.0048,6.3508,0.5884,14.336
76.3,0.0048,6.3587,0.5876,14.3538
76.4,0.0048,6.3665,0.5886,14.3712
76.5,0.0048,6.375,0.5883,14.3905
76.6,0.0048,6.3842,0.5895,14.4112
76.7,0.0048,6.3927,0.5901,14.4305
76.8,0.0048,6.4004,0.5891,14.4479
76.9,0.0048,6.4079,0.5898,14.4648
77,0.0048,6.4171,0.5907,14.4855
77.1,0.0048,6.426,0.5902,14.5057
77.2,0.0048,6.4342,0.5921,14.5241
77.3,0.0048,6.4419,0.5912,14.5415
77.4,0.0048,6.4496,0.5911,14.5589
77.5,0.0048,6.4587,0.5927,14.5796
77.6,0.0048,6.4677,0.5919,14.5998
77.7,0.0049,6.4756,0.5937,14.6177
77.8,0.0048,6.4837,0.5924,14.636
77.9,0.0048,6.4917,0.5925,14.6539
78,0.0049,6.5006,0.5946,14.6741
78.1,0.0049,6.5092,0.5933,14.6934
78.2,0.0049,6.5173,0.5948,14.7117
78.3,0.0049,6.5252,0.5946,14.7296
78.4,0.0049,6.5331,0.5939,14.7475
78.5,0.0049,6.5421,0.5961,14.7677
78.6,0.0049,6.5506,0.5949,14.787
78.7,0.0049,6.5587,0.596,14.8053
78.8,0.0049,6.5667,0.5963,14.8232
78.9,0.0049,6.5752,0.5955,14.8425
79,0.0049,6.584,0.5981,14.8622
79.1,0.0049,6.5925,0.5967,14.8815
79.2,0.0049,6.6004,0.5975,14.8994
79.3,0.0049,6.6087,0.5983,14.9182
79.4,0.0049,6.6171,0.5975,14.937
79.5,0.0049,6.6256,0.5988,14.9563
79.6,0.0049,6.634,0.599,14.9751
79.7,0.0049,6.6419,0.5986,14.9929
79.8,0.0049,6.6502,0.5996,15.0118
79.9,0.0049,6.6585,0.5997,15.0306
80,0.0049,6.6673,0.5999,15.0503
80.1,0.0049,6.6754,0.6011,15.0687
80.2,0.0049,6.6835,0.5999,15.087
80.3,0.0049,6.6919,0.6013,15.1058
80.4,0.0049,6.7004,0.6013,15.1251
80.5,0.0049,6.709,0.6012,15.1444
80.6,0.0049,6.7171,0.6023,15.1627
80.7,0.0049,6.7252,0.6015,15.1811
80.8,0.0049,6.7337,0.6026,15.2003
80.9,0.0049,6.7423,0.6033,15.2196
81,0.0049,6.7504,0.6027,15.238
81.1,0.0049,6.7585,0.6038,15.2563
81.2,0.0049,6.7667,0.6035,15.2746
81.3,0.0049,6.7754,0.6038,15.2944
81.4,0.0049,6.7837,0.6054,15.3132
81.5,0.0049,6.7919,0.6038,15.3315
81.6,0.0049,6.8,0.6053,15.3499
81.7,0.0049,6.8085,0.6053,15.3692
81.8,0.0049,6.8175,0.6054,15.3894
81.9,0.005,6.8256,0.607,15.4077
82,0.005,6.8335,0.6055,15.4256
82.1,0.005,6.8419,0.6065,15.4444
82.2,0.005,6.8504,0.6071,15.4637
82.3,0.005,6.8592,0.6068,15.4834
82.4,0.005,6.8673,0.6081,15.5018
82.5,0.005,6.8752,0.6077,15.5197
82.6,0.005,6.8835,0.6078,15.5385
82.7,0.005,6.8921,0.6094,15.5577
82.8,0.005,6.9008,0.6084,15.5775
82.9,0.005,6.909,0.6099,15.5958
83,0.005,6.9169,0.6092,15.6137
83.1,0.005,6.925,0.6091,15.6321
83.2,0.005,6.934,0.6108,15.6523
83.3,0.005,6.9423,0.61,15.6711
83.4,0.005,6.9502,0.6108,15.689
83.5,0.005,6.9581,0.6106,15.7068
83.6,0.005,6.9665,0.6109,15.7256
83.7,0.005,6.9756,0.6121,15.7463
83.8,0.005,6.984,0.6123,15.7651
83.9,0.005,6.9919,0.6118,15.783
84,0.005,7,0.6128,15.8014
84.1,0.005,7.0085,0.6123,15.8206
84.2,0.005,7.0177,0.6136,15.8413
84.3,0.005,7.0258,0.614,15.8597
84.4,0.005,7.0333,0.6128,15.8766
84.5,0.005,7.0417,0.6142,15.8954
84.6,0.005,7.0504,0.614,15.9152
84.7,0.005,7.0594,0.6145,15.9354
84.8,0.005,7.0673,0.6157,15.9533
84.9,0.005,7.075,0.6139,15.9707
85,0.005,7.0831,0.6158,15.989
85.1,0.005,7.0923,0.6156,16.0097
85.2,0.005,7.101,0.6161,16.0294
85.3,0.005,7.109,0.6176,16.0473
85.4,0.005,7.1167,0.6157,16.0647
85.5,0.005,7.125,0.6171,16.0835
85.6,0.0051,7.134,0.6178,16.1037
85.7,0.005,7.1425,0.6173,16.123
85.8,0.0051,7.1504,0.6188,16.1409
85.9,0.005,7.1581,0.6172,16.1583
86,0.0051,7.1665,0.6182,16.1771
86.1,0.0051,7.1756,0.6192,16.1978
86.2,0.0051,7.1842,0.6186,16.2171
86.3,0.0051,7.1921,0.6201,16.235
86.4,0.0051,7.2,0.6192,16.2528
86.5,0.0051,7.2085,0.6196,16.2721
86.6,0.0051,7.2175,0.621,16.2923
86.7,0.0051,7.2258,0.6203,16.3111
86.8,0.0051,7.2337,0.6209,16.329
86.9,0.0051,7.2415,0.6212,16.3464
87,0.0051,7.2504,0.6205,16.3666
87.1,0.0051,7.2592,0.6226,16.3864
87.2,0.0051,7.2675,0.622,16.4052
87.3,0.0051,7.2754,0.6221,16.4231
87.4,0.0051,7.2831,0.6226,16.4405
87.5,0.0051,7.2923,0.6227,16.4612
87.6,0.0051,7.301,0.6237,16.4809
87.7,0.0051,7.309,0.6237,16.4988
87.8,0.0051,7.3169,0.6236,16.5166
87.9,0.0051,7.325,0.6242,16.535
88,0.0051,7.334,0.6243,16.5552
88.1,0.0051,7.3425,0.6247,16.5745
88.2,0.0051,7.3504,0.6253,16.5924
88.3,0.0051,7.3583,0.6242,16.6102
88.4,0.0051,7.3665,0.6253,16.6286
88.5,0.0051,7.3754,0.6251,16.6488
88.6,0.0051,7.384,0.6259,16.6681
88.7,0.0051,7.3921,0.6269,16.6864
88.8,0.0051,7.4,0.6254,16.7043
88.9,0.0051,7.4085,0.6275,16.7236
89,0.0051,7.4173,0.6271,16.7433
89.1,0.0051,7.4256,0.6282,16.7621
89.2,0.0051,7.4337,0.6278,16.7805
89.3,0.0051,7.4419,0.628,16.7988
89.4,0.0051,7.4502,0.6282,16.8176
89.5,0.0051,7.459,0.6289,16.8374
89.6,0.0051,7.4673,0.6281,16.8562
89.7,0.0052,7.4752,0.6299,16.8741
89.8,0.0051,7.4835,0.6291,16.8929
89.9,0.0051,7.4921,0.6298,16.9122
90,0.0052,7.5006,0.6306,16.9314
90.1,0.0052,7.509,0.63,16.9502
90.2,0.0052,7.5167,0.6303,16.9676
90.3,0.0052,7.5254,0.6319,16.9874
90.4,0.0051,7.534,0.6296,17.0067
90.5,0.0052,7.5423,0.6326,17.0255
90.6,0.0052,7.5504,0.6304,17.0438
90.7,0.0052,7.5585,0.6317,17.0622
90.8,0.0052,7.5671,0.6323,17.0814
90.9,0.0052,7.5754,0.6319,17.1003
91,0.0052,7.5837,0.6321,17.1191
91.1,0.0052,7.5917,0.6328,17.1369
91.2,0.0052,7.6,0.6321,17.1558
91.3,0.0052,7.6087,0.6343,17.1755
91.4,0.0052,7.6171,0.6329,17.1943
91.5,0.0052,7.6254,0.6351,17.2131
91.6,0.0052,7.6335,0.6311,17.2315
91.7,0.0052,7.6419,0.6355,17.2503
91.8,0.0052,7.6508,0.6347,17.2705
91.9,0.0052,7.659,0.6353,17.2888
92,0.0052,7.6669,0.6348,17.3067
92.1,0.0052,7.6752,0.6353,17.3255
92.2,0.0052,7.6837,0.6331,17.3448
92.3,0.0052,7.6925,0.6363,17.3646
92.4,0.0052,7.7004,0.6369,17.3824
92.5,0.0052,7.7085,0.6349,17.4008
92.6,0.0052,7.7169,0.6388,17.4196
92.7,0.0052,7.7254,0.6352,17.4389
92.8,0.0052,7.7342,0.638,17.4586
92.9,0.0052,7.7421,0.6375,17.4765
93,0.0052,7.7502,0.6376,17.4948
93.1,0.0052,7.7583,0.638,17.5132
93.2,0.0052,7.7673,0.6379,17.5334
93.3,0.0052,7.7756,0.6392,17.5522
93.4,0.0052,7.7833,0.6373,17.5696
93.5,0.0052,7.7915,0.6396,17.5879
93.6,0.0052,7.8,0.6387,17.6072
93.7,0.0052,7.809,0.6404,17.6274
93.8,0.0052,7.8175,0.6395,17.6467
93.9,0.0052,7.8252,0.6412,17.6641
94,0.0052,7.8333,0.6387,17.6825
94.1,0.0052,7.8419,0.6412,17.7017
94.2,0.0052,7.851,0.6412,17.7224
94.3,0.0052,7.8592,0.6411,17.7408
94.4,0.0052,7.8667,0.6418,17.7577
94.5,0.0052,7.875,0.6411,17.7765
94.6,0.0052,7.8837,0.642,17.7963
94.7,0.0053,7.8925,0.6422,17.816
94.8,0.0053,7.9006,0.6422,17.8344
94.9,0.0053,7.9081,0.6422,17.8513
95,0.0053,7.9167,0.6426,17.8706
95.1,0.0052,7.9256,0.6421,17.8908
95.2,0.0053,7.9344,0.6454,17.9106
95.3,0.0052,7.9423,0.6417,17.9284
95.4,0.0053,7.95,0.6442,17.9458
95.5,0.0053,7.9583,0.6431,17.9646
95.6,0.0053,7.9675,0.6436,17.9853
95.7,0.0053,7.976,0.645,18.0046
95.8,0.0053,7.9837,0.6436,18.022
95.9,0.0053,7.9915,0.644,18.0394
96,0.0053,7.9998,0.6441,18.0582
96.1,0.0053,8.009,0.6446,18.0789
96.2,0.0053,8.0175,0.6455,18.0982
96.3,0.0053,8.0252,0.6451,18.1156
96.4,0.0053,8.0331,0.6438,18.1335
96.5,0.0053,8.0419,0.6467,18.1532
96.6,0.0053,8.0508,0.6447,18.1734
96.7,0.0053,8.0594,0.6469,18.1927
96.8,0.0053,8.0671,0.6459,18.2101
96.9,0.0053,8.0748,0.6456,18.2275
97,0.0053,8.0837,0.6466,18.2477
97.1,0.0053,8.0927,0.6464,18.268
97.2,0.0053,8.1008,0.6476,18.2863
97.3,0.0053,8.1087,0.6468,18.3042
97.4,0.0053,8.1165,0.6464,18.3216
97.5,0.0053,8.1254,0.6474,18.3418
97.6,0.0053,8.1344,0.6482,18.362
97.7,0.0053,8.1423,0.6472,18.3799
97.8,0.0053,8.1502,0.6487,18.3978
97.9,0.0053,8.1583,0.6469,18.4161
98,0.0053,8.1673,0.6487,18.4363
98.1,0.0053,8.1756,0.648,18.4551
98.2,0.0053,8.1837,0.6484,18.4735
98.3,0.0053,8.1917,0.6483,18.4913
98.4,0.0053,8.1998,0.6478,18.5097
98.5,0.0053,8.2087,0.6489,18.5299
98.6,0.0053,8.2173,0.6493,18.5492
98.7,0.0053,8.2254,0.6487,18.5675
98.8,0.0053,8.2333,0.6491,18.5854
98.9,0.0053,8.2419,0.6496,18.6047
99,0.0053,8.2506,0.6489,18.6244
99.1,0.0053,8.259,0.6507,18.6432
99.2,0.0053,8.2671,0.6489,18.6616
99.3,0.0053,8.2752,0.6503,18.6799
99.4,0.0053,8.2837,0.6497,18.6992
99.5,0.0053,8.2923,0.6497,18.7185
99.6,0.0053,8.3004,0.6511,18.7368
99.7,0.0053,8.3085,0.6492,18.7552
99.8,0.0053,8.3167,0.6504,18.7735
99.9,0.0053,8.3252,0.6508,18.7928
100,0.0053,8.334,0.65,18.8125
100.1,0.0053,8.3423,0.6517,18.8314
100.2,0.0053,8.3502,0.6503,18.8492
100.3,0.0053,8.3587,0.651,18.8685
100.4,0.0053,8.3671,0.6517,18.8873
100.5,0.0053,8.3756,0.6509,18.9066
100.6,0.0053,8.3835,0.6519,18.9245
100.7,0.0053,8.3917,0.6514,18.9428
100.8,0.0053,8.4004,0.6515,18.9626
100.9,0.0053,8.4087,0.6524,18.9814
101,0.0053,8.4171,0.6513,19.0002
101.1,0.0053,8.425,0.652,19.0181
101.2,0.0053,8.4333,0.6521,19.0369
101.3,0.0053,8.4421,0.6518,19.0566
101.4,0.0053,8.4504,0.6524,19.0754
101.5,0.0053,8.4585,0.6526,19.0938
101.6,0.0053,8.4669,0.652,19.1126
101.7,0.0053,8.4754,0.6531,19.1319
101.8,0.0053,8.4842,0.6523,19.1516
101.9,0.0053,8.4923,0.6532,19.17
102,0.0053,8.5004,0.6529,19.1883
102.1,0.0053,8.5085,0.652,19.2066
102.2,0.0053,8.5171,0.6535,19.2259
102.3,0.0053,8.5258,0.6526,19.2457
102.4,0.0053,8.5337,0.6528,19.2635
102.5,0.0053,8.5419,0.6536,19.2819
102.6,0.0053,8.5502,0.652,19.3007
102.7,0.0053,8.559,0.6536,19.3204
102.8,0.0053,8.5675,0.653,19.3397
102.9,0.0053,8.5754,0.6528,19.3576
103,0.0053,8.5835,0.6532,19.3759
103.1,0.0053,8.5917,0.652,19.3943
103.2,0.0053,8.6006,0.6531,19.4145
103.3,0.0053,8.609,0.6531,19.4333
103.4,0.0053,8.6169,0.6518,19.4512
103.5,0.0053,8.6248,0.6531,19.4691
103.6,0.0053,8.6333,0.6515,19.4883
103.7,0.0053,8.6423,0.6527,19.5086
103.8,0.0053,8.6506,0.6528,19.5274
103.9,0.0053,8.6583,0.6512,19.5448
104,0.0053,8.6665,0.652,19.5631
104.1,0.0053,8.6752,0.651,19.5829
104.2,0.0053,8.6844,0.6515,19.6036
104.3,0.0053,8.6925,0.6516,19.6219
104.4,0.0053,8.7,0.65,19.6388
104.5,0.0053,8.7083,0.65,19.6576
104.6,0.0053,8.7171,0.6499,19.6774
104.7,0.0053,8.726,0.6489,19.6976
104.8,0.0053,8.7342,0.6496,19.716
104.9,0.0053,8.7415,0.6474,19.7324
105,0.0053,8.7498,0.6471,19.7512
105.1,0.0053,8.759,0.6478,19.7719
105.2,0.0053,8.7677,0.6464,19.7917
105.3,0.0053,8.7756,0.6466,19.8095
105.4,0.0053,8.7833,0.6447,19.8269
105.5,0.0053,8.7917,0.6431,19.8457
105.6,0.0053,8.8008,0.6439,19.8664
105.7,0.0052,8.8094,0.6419,19.8857
105.8,0.0052,8.8171,0.6401,19.9031
105.9,0.0052,8.8246,0.6385,19.92
106,0.0052,8.8331,0.6345,19.9393
106.1,0.0051,8.8423,0.6249,19.96
106.2,0.0048,8.851,0.5877,19.9798
106.3,0.0044,8.8587,0.5362,19.9972
106.4,0.0039,8.8662,0.4715,20.0141
106.5,0.0028,8.875,0.34,20.0339
106.6,-0.0001,8.8842,-0.0075,20.0546
106.7,0,8.8929,0.0008,20.0743
106.8,0,8.9004,-0.0001,20.0912
106.9,0,8.9079,0.0014,20.1082
107,0,8.9169,-0.0005,20.1284
107.1,0,8.926,0.001,20.1491
107.2,0,8.9342,0.0005,20.1674
107.3,0,8.9419,-0.0003,20.1848
107.4,0,8.9496,0.0015,20.2022
107.5,0,8.9587,-0.0004,20.2229
107.6,0,8.9679,0.001,20.2436
107.7,0,8.9758,0.0006,20.2615
107.8,0,8.9835,0.0004,20.2789
107.9,0,8.9915,0.0006,20.2967
108,0,9.0004,0.0007,20.317
108.1,0,9.0092,0.0003,20.3367
108.2,0,9.0173,0.0011,20.3551
108.3,0,9.0252,0.0001,20.3729
108.4,0,9.0331,0.0005,20.3908
108.5,0,9.0421,0.0011,20.411
108.6,0,9.0506,-0.0004,20.4303
108.7,0,9.059,0.0012,20.4491
108.78,0,9.065,0.0004,20.4628