File: Tensile Test Project/Tensile Test Data GNP 9_1.csv
Time,Force,Displacement,Stress,Strain
0,0,0.0004,0.0011,0.0009
0.1,0,0.0027,0.003,0.0062
0.2,0,0.0106,0.0029,0.0241
0.3,0.0001,0.0206,0.0068,0.0469
0.4,0.0001,0.0308,0.0091,0.0701
0.5,0.0001,0.0406,0.0107,0.0923
0.6,0.0001,0.05,0.014,0.1136
0.7,0.0001,0.0583,0.0156,0.1326
0.8,0.0001,0.0665,0.017,0.151
0.9,0.0002,0.075,0.0196,0.1705
1,0.0002,0.084,0.0212,0.1908
1.1,0.0002,0.0923,0.0232,0.2098
1.2,0.0002,0.1002,0.0247,0.2277
1.3,0.0002,0.1081,0.0268,0.2457
1.4,0.0002,0.1167,0.0284,0.2652
1.5,0.0003,0.1258,0.031,0.286
1.6,0.0003,0.134,0.0321,0.3045
1.7,0.0003,0.1417,0.0346,0.322
1.8,0.0003,0.1498,0.0356,0.3404
1.9,0.0003,0.1585,0.0377,0.3603
2,0.0003,0.1677,0.0403,0.3812
2.1,0.0003,0.1758,0.0412,0.3996
2.2,0.0004,0.1835,0.0436,0.4171
2.3,0.0004,0.1917,0.045,0.4356
2.4,0.0004,0.2004,0.0459,0.4555
2.5,0.0004,0.2094,0.049,0.4759
2.6,0.0004,0.2173,0.0495,0.4938
2.7,0.0004,0.225,0.0513,0.5114
2.8,0.0004,0.2333,0.0533,0.5303
2.9,0.0005,0.2425,0.0545,0.5511
3,0.0005,0.2512,0.057,0.571
3.1,0.0005,0.2592,0.0583,0.589
3.2,0.0005,0.2665,0.0594,0.6056
3.3,0.0005,0.2748,0.0617,0.6245
3.4,0.0005,0.284,0.0625,0.6454
3.5,0.0005,0.2927,0.065,0.6652
3.6,0.0006,0.3004,0.0667,0.6828
3.7,0.0006,0.3079,0.067,0.6998
3.8,0.0006,0.3165,0.0688,0.7192
3.9,0.0006,0.3256,0.0715,0.7401
4,0.0006,0.3342,0.0718,0.7595
4.1,0.0006,0.3421,0.0739,0.7775
4.2,0.0006,0.3498,0.0753,0.795
4.3,0.0006,0.3583,0.076,0.8144
4.4,0.0007,0.3675,0.0792,0.8352
4.5,0.0007,0.376,0.079,0.8546
4.6,0.0007,0.3837,0.0815,0.8722
4.7,0.0007,0.3915,0.0823,0.8897
4.8,0.0007,0.4002,0.0833,0.9096
4.9,0.0007,0.4094,0.0864,0.9304
5,0.0007,0.4175,0.0862,0.9489
5.1,0.0007,0.4254,0.0881,0.9669
5.2,0.0007,0.4331,0.0897,0.9844
5.3,0.0008,0.4421,0.0906,1.0047
5.4,0.0008,0.451,0.0924,1.0251
5.5,0.0008,0.4592,0.094,1.0436
5.6,0.0008,0.4669,0.0946,1.0611
5.7,0.0008,0.4748,0.0959,1.0791
5.8,0.0008,0.4837,0.0977,1.0994
5.9,0.0008,0.4925,0.0987,1.1193
6,0.0008,0.5006,0.1005,1.1378
6.1,0.0008,0.5083,0.1011,1.1553
6.2,0.0009,0.5165,0.1023,1.1738
6.3,0.0009,0.5252,0.1046,1.1937
6.4,0.0009,0.5337,0.1047,1.2131
6.5,0.0009,0.5421,0.1071,1.232
6.6,0.0009,0.5502,0.1078,1.2505
6.7,0.0009,0.5583,0.1084,1.2689
6.8,0.0009,0.5673,0.1112,1.2893
6.9,0.0009,0.5758,0.1112,1.3087
7,0.0009,0.584,0.1126,1.3272
7.1,0.001,0.5919,0.1143,1.3452
7.2,0.001,0.6002,0.1147,1.3641
7.3,0.001,0.609,0.1165,1.384
7.4,0.001,0.6173,0.1178,1.4029
7.5,0.001,0.6254,0.1183,1.4214
7.6,0.001,0.6335,0.1204,1.4399
7.7,0.001,0.6421,0.1208,1.4593
7.8,0.001,0.6506,0.1221,1.4787
7.9,0.001,0.659,0.124,1.4976
8,0.001,0.6671,0.1242,1.5161
8.1,0.001,0.6754,0.1257,1.535
8.2,0.0011,0.6837,0.1275,1.554
8.3,0.0011,0.6923,0.1276,1.5734
8.4,0.0011,0.7004,0.1298,1.5919
8.5,0.0011,0.7085,0.1302,1.6103
8.6,0.0011,0.7169,0.1312,1.6293
8.7,0.0011,0.7252,0.1333,1.6482
8.8,0.0011,0.7335,0.1333,1.6671
8.9,0.0011,0.7417,0.1349,1.6856
9,0.0011,0.75,0.1366,1.7045
9.1,0.0011,0.7585,0.1366,1.724
9.2,0.0012,0.7671,0.1389,1.7434
9.3,0.0012,0.7754,0.1393,1.7623
9.4,0.0012,0.7835,0.1404,1.7808
9.5,0.0012,0.7921,0.1422,1.8002
9.6,0.0012,0.8008,0.1424,1.8201
9.7,0.0012,0.8087,0.1439,1.8381
9.8,0.0012,0.8169,0.1452,1.8565
9.9,0.0012,0.8252,0.1456,1.8755
10,0.0012,0.8337,0.1473,1.8949
10.1,0.0012,0.8425,0.1487,1.9148
10.2,0.0012,0.8504,0.1489,1.9328
10.3,0.0013,0.8585,0.1509,1.9512
10.4,0.0013,0.8669,0.1514,1.9702
10.5,0.0013,0.8756,0.1521,1.9901
10.6,0.0013,0.8842,0.1545,2.0095
10.7,0.0013,0.8921,0.1541,2.0275
10.8,0.0013,0.9,0.1561,2.0455
10.9,0.0013,0.9083,0.1567,2.0644
11,0.0013,0.9171,0.1575,2.0843
11.1,0.0013,0.9256,0.1596,2.1037
11.2,0.0013,0.9335,0.1597,2.1217
11.3,0.0013,0.9417,0.1605,2.1402
11.4,0.0014,0.9502,0.1622,2.1596
11.5,0.0014,0.959,0.1627,2.1795
11.6,0.0014,0.9673,0.164,2.1984
11.7,0.0014,0.9752,0.1653,2.2164
11.8,0.0014,0.9833,0.1656,2.2348
11.9,0.0014,0.9919,0.167,2.2543
12,0.0014,1.0008,0.1687,2.2746
12.1,0.0014,1.0092,0.1691,2.2936
12.2,0.0014,1.0167,0.1704,2.3106
12.3,0.0014,1.0248,0.1711,2.3291
12.4,0.0014,1.0337,0.1721,2.3494
12.5,0.0014,1.0427,0.1739,2.3698
12.6,0.0014,1.0506,0.1738,2.3878
12.7,0.0015,1.0581,0.1752,2.4048
12.8,0.0015,1.0665,0.1762,2.4238
12.9,0.0015,1.0756,0.1766,2.4446
13,0.0015,1.0844,0.1791,2.4645
13.1,0.0015,1.0923,0.1791,2.4825
13.2,0.0015,1.0998,0.1798,2.4995
13.3,0.0015,1.1083,0.1814,2.5189
13.4,0.0015,1.1173,0.1818,2.5393
13.5,0.0015,1.126,0.1833,2.5592
13.6,0.0015,1.1337,0.1843,2.5767
13.7,0.0015,1.1412,0.1842,2.5937
13.8,0.0015,1.1498,0.1857,2.6132
13.9,0.0016,1.159,0.1873,2.634
14,0.0016,1.1677,0.1872,2.6539
14.1,0.0016,1.1754,0.189,2.6714
14.2,0.0016,1.1831,0.1894,2.6889
14.3,0.0016,1.1917,0.1899,2.7083
14.4,0.0016,1.2008,0.1922,2.7292
14.5,0.0016,1.2094,0.1918,2.7486
14.6,0.0016,1.2171,0.1936,2.7661
14.7,0.0016,1.2248,0.194,2.7836
14.8,0.0016,1.2335,0.1942,2.8035
14.9,0.0016,1.2425,0.1968,2.8239
15,0.0016,1.2508,0.197,2.8428
15.1,0.0016,1.2587,0.1975,2.8608
15.2,0.0017,1.2665,0.1988,2.8783
15.3,0.0017,1.2752,0.1991,2.8982
15.4,0.0017,1.2844,0.2006,2.919
15.5,0.0017,1.2925,0.2015,2.9375
15.6,0.0017,1.3002,0.2021,2.955
15.7,0.0017,1.3081,0.2028,2.973
15.8,0.0017,1.3171,0.2042,2.9934
15.9,0.0017,1.3258,0.2044,3.0133
16,0.0017,1.334,0.2063,3.0317
16.1,0.0017,1.3419,0.206,3.0497
16.2,0.0017,1.3498,0.2069,3.0677
16.3,0.0017,1.3587,0.2086,3.0881
16.4,0.0017,1.3673,0.2085,3.1075
16.5,0.0017,1.3756,0.21,3.1264
16.6,0.0018,1.3835,0.2109,3.1444
16.7,0.0018,1.3917,0.2108,3.1629
16.8,0.0018,1.4006,0.2131,3.1832
16.9,0.0018,1.4092,0.213,3.2027
17,0.0018,1.4171,0.2144,3.2206
17.1,0.0018,1.4252,0.2149,3.2391
17.2,0.0018,1.4335,0.2153,3.258
17.3,0.0018,1.4423,0.2168,3.2779
17.4,0.0018,1.4506,0.2177,3.2969
17.5,0.0018,1.4587,0.2176,3.3153
17.6,0.0018,1.4669,0.2192,3.3338
17.7,0.0018,1.4754,0.2198,3.3532
17.8,0.0018,1.484,0.2203,3.3726
17.9,0.0018,1.4923,0.222,3.3916
18,0.0018,1.5002,0.222,3.4096
18.1,0.0019,1.5087,0.2225,3.429
18.2,0.0019,1.5171,0.2244,3.4479
18.3,0.0019,1.5256,0.2241,3.4673
18.4,0.0019,1.5337,0.2252,3.4858
18.5,0.0019,1.5417,0.2265,3.5038
18.6,0.0019,1.5502,0.226,3.5232
18.7,0.0019,1.5587,0.2284,3.5426
18.8,0.0019,1.5671,0.2281,3.5616
18.9,0.0019,1.5752,0.229,3.58
19,0.0019,1.5833,0.2301,3.5985
19.1,0.0019,1.5919,0.2304,3.6179
19.2,0.0019,1.6004,0.2317,3.6373
19.3,0.0019,1.6087,0.2325,3.6562
19.4,0.0019,1.6169,0.2325,3.6747
19.5,0.0019,1.6252,0.234,3.6937
19.6,0.002,1.6342,0.2348,3.714
19.7,0.002,1.6423,0.2349,3.7325
19.8,0.002,1.6504,0.2366,3.7509
19.9,0.002,1.6585,0.2367,3.7694
20,0.002,1.6671,0.2371,3.7888
20.1,0.002,1.6758,0.239,3.8087
20.2,0.002,1.6837,0.2387,3.8267
20.3,0.002,1.6919,0.2397,3.8452
20.4,0.002,1.7002,0.2411,3.8641
20.5,0.002,1.7087,0.2407,3.8835
20.6,0.002,1.7175,0.2431,3.9034
20.7,0.002,1.7256,0.2426,3.9219
20.8,0.002,1.7335,0.2434,3.9399
20.9,0.002,1.7417,0.2446,3.9583
21,0.002,1.7504,0.2447,3.9782
21.1,0.0021,1.759,0.2462,3.9976
21.2,0.0021,1.7669,0.2468,4.0156
21.3,0.0021,1.7748,0.2466,4.0336
21.4,0.0021,1.7831,0.248,4.0526
21.5,0.0021,1.7921,0.249,4.0729
21.6,0.0021,1.8008,0.2492,4.0928
21.7,0.0021,1.8085,0.2504,4.1103
21.8,0.0021,1.8167,0.251,4.1288
21.9,0.0021,1.8252,0.2508,4.1482
22,0.0021,1.8342,0.2532,4.1686
22.1,0.0021,1.8425,0.2527,4.1875
22.2,0.0021,1.8502,0.2542,4.205
22.3,0.0021,1.8583,0.2545,4.2235
22.4,0.0021,1.8671,0.2549,4.2434
22.5,0.0021,1.8758,0.2567,4.2633
22.6,0.0021,1.8842,0.2567,4.2822
22.7,0.0021,1.8919,0.2571,4.2997
22.8,0.0022,1.9,0.2585,4.3182
22.9,0.0022,1.909,0.2583,4.3385
23,0.0022,1.9177,0.2598,4.3584
23.1,0.0022,1.9258,0.2606,4.3769
23.2,0.0022,1.9333,0.2605,4.3939
23.3,0.0022,1.9417,0.2616,4.4129
23.4,0.0022,1.9504,0.2624,4.4328
23.5,0.0022,1.9592,0.2628,4.4527
23.6,0.0022,1.9671,0.2636,4.4706
23.7,0.0022,1.9748,0.2643,4.4882
23.8,0.0022,1.9831,0.2641,4.5071
23.9,0.0022,1.9923,0.2664,4.5279
24,0.0022,2.0008,0.2658,4.5473
24.1,0.0022,2.0087,0.2674,4.5653
24.2,0.0022,2.0165,0.2674,4.5829
24.3,0.0022,2.025,0.2678,4.6023
24.4,0.0022,2.0342,0.2697,4.6231
24.5,0.0022,2.0425,0.27,4.642
24.6,0.0022,2.0504,0.27,4.66
24.7,0.0023,2.0581,0.2716,4.6776
24.8,0.0023,2.0669,0.2712,4.6974
24.9,0.0023,2.0758,0.2729,4.7178
25,0.0023,2.0842,0.2735,4.7367
25.1,0.0023,2.0921,0.2734,4.7547
25.2,0.0023,2.0998,0.2744,4.7723
25.3,0.0023,2.1087,0.2749,4.7926
25.4,0.0023,2.1177,0.2757,4.813
25.5,0.0023,2.1256,0.277,4.831
25.6,0.0023,2.1337,0.2768,4.8494
25.7,0.0023,2.1415,0.2772,4.867
25.8,0.0023,2.1504,0.279,4.8873
25.9,0.0023,2.1592,0.2786,4.9072
26,0.0023,2.1671,0.2796,4.9252
26.1,0.0023,2.1752,0.2807,4.9437
26.2,0.0023,2.1833,0.2799,4.9621
26.3,0.0024,2.1923,0.2823,4.9825
26.4,0.0024,2.2006,0.2822,5.0014
26.5,0.0024,2.2087,0.2824,5.0199
26.6,0.0024,2.2167,0.2841,5.0379
26.7,0.0024,2.225,0.2834,5.0568
26.8,0.0024,2.234,0.2849,5.0772
26.9,0.0024,2.2425,0.286,5.0966
27,0.0024,2.2504,0.2856,5.1146
27.1,0.0024,2.2585,0.2868,5.133
27.2,0.0024,2.2669,0.2872,5.152
27.3,0.0024,2.2756,0.2878,5.1719
27.4,0.0024,2.284,0.2887,5.1908
27.5,0.0024,2.2921,0.289,5.2093
27.6,0.0024,2.3002,0.289,5.2277
27.7,0.0024,2.3087,0.2907,5.2472
27.8,0.0024,2.3173,0.2906,5.2666
27.9,0.0024,2.3256,0.2915,5.2855
28,0.0024,2.3335,0.2925,5.3035
28.1,0.0024,2.3421,0.2918,5.3229
28.2,0.0024,2.3506,0.2939,5.3423
28.3,0.0024,2.3592,0.2939,5.3617
28.4,0.0024,2.3671,0.2941,5.3797
28.5,0.0025,2.375,0.2955,5.3977
28.6,0.0025,2.3835,0.2951,5.4171
28.7,0.0025,2.3921,0.2965,5.4366
28.8,0.0025,2.4002,0.297,5.455
28.9,0.0025,2.4085,0.297,5.474
29,0.0025,2.4167,0.298,5.4924
29.1,0.0025,2.4252,0.2989,5.5118
29.2,0.0025,2.4337,0.2988,5.5312
29.3,0.0025,2.4421,0.3003,5.5502
29.4,0.0025,2.4502,0.3004,5.5687
29.5,0.0025,2.4585,0.3003,5.5876
29.6,0.0025,2.4675,0.3024,5.608
29.7,0.0025,2.4756,0.302,5.6264
29.8,0.0025,2.4835,0.3025,5.6444
29.9,0.0025,2.4919,0.3039,5.6634
30,0.0025,2.5004,0.303,5.6828
30.1,0.0025,2.509,0.3051,5.7022
30.2,0.0025,2.5171,0.305,5.7206
30.3,0.0025,2.5252,0.3051,5.7391
30.4,0.0026,2.5335,0.3068,5.758
30.5,0.0026,2.5419,0.3063,5.777
30.6,0.0026,2.5508,0.3075,5.7973
30.7,0.0026,2.559,0.3084,5.8158
30.8,0.0026,2.5669,0.3078,5.8338
30.9,0.0026,2.575,0.3092,5.8523
31,0.0026,2.584,0.3098,5.8726
31.1,0.0026,2.5923,0.3099,5.8916
31.2,0.0026,2.6004,0.311,5.91
31.3,0.0026,2.6083,0.3113,5.928
31.4,0.0026,2.6165,0.3111,5.9465
31.5,0.0026,2.6254,0.3131,5.9669
31.6,0.0026,2.634,0.3129,5.9863
31.7,0.0026,2.6419,0.3133,6.0043
31.8,0.0026,2.65,0.3145,6.0227
31.9,0.0026,2.6585,0.314,6.0421
32,0.0026,2.6675,0.3157,6.0625
32.1,0.0026,2.6758,0.3161,6.0814
32.2,0.0026,2.6833,0.3155,6.0985
32.3,0.0026,2.6917,0.3175,6.1174
32.4,0.0026,2.7004,0.3167,6.1373
32.5,0.0027,2.7092,0.3182,6.1572
32.6,0.0027,2.7173,0.3191,6.1757
32.7,0.0027,2.725,0.3184,6.1932
32.8,0.0027,2.7331,0.3197,6.2116
32.9,0.0027,2.7423,0.3205,6.2325
33,0.0027,2.751,0.3204,6.2524
33.1,0.0027,2.759,0.3215,6.2704
33.2,0.0027,2.7667,0.3216,6.2879
33.3,0.0027,2.775,0.3217,6.3068
33.4,0.0027,2.784,0.3231,6.3272
33.5,0.0027,2.7925,0.3237,6.3466
33.6,0.0027,2.8004,0.3236,6.3646
33.7,0.0027,2.8081,0.3249,6.3821
33.8,0.0027,2.8165,0.3238,6.401
33.9,0.0027,2.8256,0.3265,6.4219
34,0.0027,2.8342,0.3257,6.4413
34.1,0.0027,2.8421,0.3261,6.4593
34.2,0.0027,2.8498,0.3271,6.4768
34.3,0.0027,2.8583,0.3273,6.4962
34.4,0.0027,2.8675,0.3279,6.517
34.5,0.0027,2.876,0.3293,6.5365
34.6,0.0027,2.884,0.3286,6.5544
34.7,0.0027,2.8917,0.3296,6.572
34.8,0.0027,2.9002,0.3299,6.5914
34.9,0.0028,2.9092,0.3306,6.6117
35,0.0028,2.9175,0.3314,6.6307
35.1,0.0028,2.9254,0.3317,6.6487
35.2,0.0028,2.9331,0.3317,6.6662
35.3,0.0028,2.9421,0.3327,6.6866
35.4,0.0028,2.9508,0.3335,6.7064
35.5,0.0028,2.959,0.3336,6.7249
35.6,0.0028,2.9669,0.3344,6.7429
35.7,0.0028,2.975,0.3341,6.7614
35.8,0.0028,2.9837,0.3356,6.7812
35.9,0.0028,2.9925,0.3362,6.8011
36,0.0028,3.0006,0.3356,6.8196
36.1,0.0028,3.0085,0.3375,6.8376
36.2,0.0028,3.0167,0.3366,6.8561
36.3,0.0028,3.0254,0.3377,6.8759
36.4,0.0028,3.034,0.339,6.8954
36.5,0.0028,3.0419,0.3381,6.9134
36.6,0.0028,3.05,0.3397,6.9318
36.7,0.0028,3.0583,0.3396,6.9508
36.8,0.0028,3.0673,0.34,6.9711
36.9,0.0028,3.0756,0.3414,6.9901
37,0.0028,3.0837,0.3412,7.0085
37.1,0.0028,3.0919,0.3416,7.027
37.2,0.0029,3.1002,0.3424,7.0459
37.3,0.0029,3.109,0.3429,7.0658
37.4,0.0029,3.1173,0.3432,7.0848
37.5,0.0029,3.1254,0.3444,7.1032
37.6,0.0029,3.1335,0.3434,7.1217
37.7,0.0029,3.1419,0.3452,7.1406
37.8,0.0029,3.1506,0.3455,7.1605
37.9,0.0029,3.159,0.3451,7.1795
38,0.0029,3.1669,0.3469,7.1974
38.1,0.0029,3.1752,0.3463,7.2164
38.2,0.0029,3.1837,0.3465,7.2358
38.3,0.0029,3.1923,0.3484,7.2552
38.4,0.0029,3.2004,0.3475,7.2737
38.5,0.0029,3.2085,0.3488,7.2921
38.6,0.0029,3.2169,0.3489,7.3111
38.7,0.0029,3.2252,0.3493,7.33
38.8,0.0029,3.2335,0.35,7.349
38.9,0.0029,3.2417,0.3503,7.3674
39,0.0029,3.25,0.3504,7.3864
39.1,0.0029,3.2585,0.3523,7.4058
39.2,0.0029,3.2669,0.3511,7.4247
39.3,0.0029,3.2752,0.3526,7.4437
39.4,0.0029,3.2835,0.353,7.4626
39.5,0.0029,3.2919,0.3527,7.4815
39.6,0.003,3.3008,0.3545,7.5019
39.7,0.003,3.309,0.3543,7.5204
39.8,0.0029,3.3171,0.3542,7.5388
39.9,0.003,3.3254,0.3556,7.5578
40,0.003,3.334,0.3553,7.5772
40.1,0.003,3.3425,0.3563,7.5966
40.2,0.003,3.3504,0.3567,7.6146
40.3,0.003,3.3585,0.3564,7.633
40.4,0.003,3.3669,0.3577,7.652
40.5,0.003,3.3754,0.3578,7.6714
40.6,0.003,3.3842,0.358,7.6913
40.7,0.003,3.3921,0.3593,7.7093
40.8,0.003,3.4002,0.3586,7.7277
40.9,0.003,3.4083,0.3595,7.7462
41,0.003,3.4173,0.3605,7.7666
41.1,0.003,3.4256,0.3604,7.7855
41.2,0.003,3.4335,0.3609,7.8035
41.3,0.003,3.4415,0.3616,7.8215
41.4,0.003,3.45,0.3614,7.8409
41.5,0.003,3.459,0.3627,7.8613
41.6,0.003,3.4673,0.3631,7.8802
41.7,0.003,3.475,0.3625,7.8977
41.8,0.003,3.4833,0.364,7.9167
41.9,0.003,3.4919,0.3636,7.9361
42,0.003,3.501,0.3647,7.9569
42.1,0.003,3.5092,0.3657,7.9754
42.2,0.003,3.5167,0.3645,7.9924
42.3,0.0031,3.525,0.3664,8.0114
42.4,0.003,3.5337,0.3657,8.0312
42.5,0.0031,3.5427,0.367,8.0516
42.6,0.0031,3.5506,0.3675,8.0696
42.7,0.0031,3.5581,0.3671,8.0866
42.8,0.0031,3.5665,0.3673,8.1056
42.9,0.0031,3.5756,0.3688,8.1264
43,0.0031,3.5844,0.3689,8.1463
43.1,0.0031,3.5925,0.3695,8.1648
43.2,0.0031,3.6,0.3698,8.1818
43.3,0.0031,3.6083,0.3695,8.2008
43.4,0.0031,3.6173,0.3709,8.2211
43.5,0.0031,3.626,0.3713,8.241
43.6,0.0031,3.6337,0.371,8.2585
43.7,0.0031,3.6412,0.3719,8.2756
43.8,0.0031,3.6498,0.3714,8.295
43.9,0.0031,3.659,0.373,8.3158
44,0.0031,3.6675,0.3735,8.3352
44.1,0.0031,3.6754,0.3729,8.3532
44.2,0.0031,3.6829,0.3742,8.3703
44.3,0.0031,3.6917,0.3739,8.3902
44.4,0.0031,3.7008,0.3749,8.411
44.5,0.0031,3.7094,0.3756,8.4304
44.6,0.0031,3.7171,0.3754,8.4479
44.7,0.0031,3.7248,0.3757,8.4654
44.8,0.0031,3.7335,0.3764,8.4853
44.9,0.0031,3.7425,0.377,8.5057
45,0.0031,3.7508,0.3776,8.5246
45.1,0.0031,3.7587,0.378,8.5426
45.2,0.0031,3.7665,0.3771,8.5601
45.3,0.0032,3.7754,0.379,8.5805
45.4,0.0032,3.7844,0.3789,8.6009
45.5,0.0032,3.7923,0.3794,8.6188
45.6,0.0032,3.8004,0.38,8.6373
45.7,0.0032,3.8083,0.3793,8.6553
45.8,0.0032,3.8173,0.3809,8.6757
45.9,0.0032,3.8258,0.3814,8.6951
46,0.0032,3.834,0.3808,8.7135
46.1,0.0032,3.8419,0.3822,8.7315
46.2,0.0032,3.85,0.3815,8.75
46.3,0.0032,3.859,0.3824,8.7704
46.4,0.0032,3.8673,0.3833,8.7893
46.5,0.0032,3.8754,0.3831,8.8078
46.6,0.0032,3.8833,0.3835,8.8258
46.7,0.0032,3.8919,0.3843,8.8452
46.8,0.0032,3.9006,0.3844,8.8651
46.9,0.0032,3.9092,0.3855,8.8845
47,0.0032,3.9171,0.3852,8.9025
47.1,0.0032,3.925,0.3854,8.9205
47.2,0.0032,3.9335,0.3865,8.9399
47.3,0.0032,3.9423,0.3866,8.9598
47.4,0.0032,3.9506,0.387,8.9787
47.5,0.0032,3.9585,0.388,8.9967
47.6,0.0032,3.9667,0.387,9.0151
47.7,0.0032,3.9754,0.3886,9.035
47.8,0.0032,3.984,0.3888,9.0544
47.9,0.0032,3.9921,0.3887,9.0729
48,0.0032,4.0002,0.39,9.0914
48.1,0.0032,4.0085,0.3894,9.1103
48.2,0.0033,4.0171,0.3904,9.1297
48.3,0.0033,4.0256,0.3905,9.1491
48.4,0.0033,4.0337,0.3907,9.1676
48.5,0.0033,4.0419,0.3912,9.1861
48.6,0.0033,4.0504,0.3916,9.2055
48.7,0.0033,4.0587,0.392,9.2244
48.8,0.0033,4.0669,0.3927,9.2429
48.9,0.0033,4.075,0.3923,9.2614
49,0.0033,4.0833,0.393,9.2803
49.1,0.0033,4.0921,0.3943,9.3002
49.2,0.0033,4.1006,0.3937,9.3196
49.3,0.0033,4.1087,0.3943,9.3381
49.4,0.0033,4.1169,0.395,9.3565
49.5,0.0033,4.1252,0.3942,9.3755
49.6,0.0033,4.1342,0.396,9.3958
49.7,0.0033,4.1423,0.3959,9.4143
49.8,0.0033,4.1502,0.3956,9.4323
49.9,0.0033,4.1583,0.3967,9.4508
50,0.0033,4.1669,0.3963,9.4702
50.1,0.0033,4.1758,0.3974,9.4905
50.2,0.0033,4.1837,0.3978,9.5085
50.3,0.0033,4.1919,0.3973,9.527
50.4,0.0033,4.2002,0.3986,9.5459
50.5,0.0033,4.2087,0.3987,9.5653
50.6,0.0033,4.2175,0.3988,9.5852
50.7,0.0033,4.2256,0.4001,9.6037
50.8,0.0033,4.2337,0.3996,9.6222
50.9,0.0033,4.2417,0.3995,9.6401
51,0.0033,4.2506,0.4011,9.6605
51.1,0.0033,4.259,0.4005,9.6794
51.2,0.0033,4.2669,0.4007,9.6974
51.3,0.0033,4.2748,0.4018,9.7154
51.4,0.0033,4.2833,0.4006,9.7348
51.5,0.0034,4.2923,0.4027,9.7552
51.6,0.0034,4.3006,0.4028,9.7741
51.7,0.0033,4.3085,0.4021,9.7921
51.8,0.0034,4.3167,0.4034,9.8106
51.9,0.0034,4.3254,0.4031,9.8305
52,0.0034,4.3344,0.4041,9.8509
52.1,0.0034,4.3425,0.4046,9.8693
52.2,0.0034,4.35,0.404,9.8864
52.3,0.0034,4.3581,0.405,9.9048
52.4,0.0034,4.3671,0.4053,9.9252
52.5,0.0034,4.376,0.4057,9.9455
52.6,0.0034,4.3842,0.4063,9.964
52.7,0.0034,4.3915,0.4065,9.9806
52.8,0.0034,4.3998,0.4056,9.9995
52.9,0.0034,4.409,0.4079,10.0204
53,0.0034,4.4177,0.4075,10.0402
53.1,0.0034,4.4256,0.4077,10.0582
53.2,0.0034,4.4333,0.4085,10.0758
53.3,0.0034,4.4417,0.4076,10.0947
53.4,0.0034,4.4506,0.4094,10.1151
53.5,0.0034,4.4594,0.4098,10.1349
53.6,0.0034,4.4671,0.4092,10.1525
53.7,0.0034,4.4746,0.4105,10.1695
53.8,0.0034,4.4831,0.4094,10.1889
53.9,0.0034,4.4923,0.4109,10.2098
54,0.0034,4.5008,0.4117,10.2292
54.1,0.0034,4.5087,0.4109,10.2472
54.2,0.0034,4.5162,0.4113,10.2642
54.3,0.0034,4.5248,0.412,10.2836
54.4,0.0034,4.5342,0.4118,10.3049
54.5,0.0034,4.5427,0.4136,10.3243
54.6,0.0034,4.5506,0.413,10.3423
54.7,0.0034,4.5581,0.4129,10.3594
54.8,0.0034,4.5669,0.4139,10.3793
54.9,0.0034,4.5758,0.4141,10.3996
55,0.0034,4.5842,0.4142,10.4186
55.1,0.0035,4.5921,0.4157,10.4366
55.2,0.0034,4.5996,0.4138,10.4536
55.3,0.0035,4.6087,0.4157,10.4744
55.4,0.0035,4.6177,0.4162,10.4948
55.5,0.0035,4.6256,0.4156,10.5128
55.6,0.0035,4.6337,0.4171,10.5312
55.7,0.0035,4.6415,0.4159,10.5488
55.8,0.0035,4.6506,0.417,10.5696
55.9,0.0035,4.6592,0.418,10.589
56,0.0035,4.6673,0.4169,10.6075
56.1,0.0035,4.675,0.4181,10.625
56.2,0.0035,4.6831,0.4182,10.6435
56.3,0.0035,4.6921,0.4183,10.6638
56.4,0.0035,4.7006,0.4197,10.6832
56.5,0.0035,4.7087,0.4194,10.7017
56.6,0.0035,4.7167,0.4192,10.7197
56.7,0.0035,4.725,0.4201,10.7386
56.8,0.0035,4.7337,0.4203,10.7585
56.9,0.0035,4.7423,0.4206,10.7779
57,0.0035,4.7504,0.4215,10.7964
57.1,0.0035,4.7585,0.4204,10.8149
57.2,0.0035,4.7669,0.422,10.8338
57.3,0.0035,4.7756,0.4222,10.8537
57.4,0.0035,4.784,0.4218,10.8726
57.5,0.0035,4.7921,0.4235,10.8911
57.6,0.0035,4.8002,0.422,10.9096
57.7,0.0035,4.8087,0.4234,10.929
57.8,0.0035,4.8175,0.4243,10.9489
57.9,0.0035,4.8256,0.4233,10.9673
58,0.0035,4.8335,0.4247,10.9853
58.1,0.0035,4.8421,0.4241,11.0047
58.2,0.0035,4.8506,0.4246,11.0241
58.3,0.0035,4.859,0.4255,11.0431
58.4,0.0035,4.8669,0.425,11.0611
58.5,0.0035,4.875,0.4253,11.0795
58.6,0.0036,4.8835,0.4264,11.099
58.7,0.0035,4.8921,0.4261,11.1184
58.8,0.0036,4.9004,0.4265,11.1373
58.9,0.0036,4.9083,0.4273,11.1553
59,0.0036,4.9167,0.4264,11.1742
59.1,0.0036,4.9252,0.4282,11.1937
59.2,0.0036,4.9337,0.4279,11.2131
59.3,0.0036,4.9421,0.4278,11.232
59.4,0.0036,4.9502,0.4291,11.2505
59.5,0.0036,4.9585,0.428,11.2694
59.6,0.0036,4.9673,0.4294,11.2893
59.7,0.0036,4.9756,0.4299,11.3082
59.8,0.0036,4.9835,0.4293,11.3262
59.9,0.0036,4.9917,0.4304,11.3447
60,0.0036,5.0004,0.43,11.3646
60.1,0.0036,5.0092,0.4309,11.3845
60.2,0.0036,5.0171,0.4312,11.4025
60.3,0.0036,5.0252,0.4313,11.4209
60.4,0.0036,5.0335,0.4313,11.4399
60.5,0.0036,5.0421,0.4321,11.4593
60.6,0.0036,5.0508,0.432,11.4792
60.7,0.0036,5.059,0.4324,11.4976
60.8,0.0036,5.0669,0.4329,11.5156
60.9,0.0036,5.075,0.4319,11.5341
61,0.0036,5.084,0.4341,11.5544
61.1,0.0036,5.0923,0.4335,11.5734
61.2,0.0036,5.1002,0.4335,11.5914
61.3,0.0036,5.1081,0.4346,11.6094
61.4,0.0036,5.1165,0.4337,11.6283
61.5,0.0036,5.1256,0.435,11.6491
61.6,0.0036,5.134,0.4355,11.6681
61.7,0.0036,5.1419,0.4348,11.6861
61.8,0.0036,5.15,0.4362,11.7045
61.9,0.0036,5.1585,0.4355,11.724
62,0.0036,5.1677,0.4366,11.7448
62.1,0.0036,5.1758,0.4372,11.7633
62.2,0.0036,5.1835,0.4363,11.7808
62.3,0.0036,5.1915,0.4372,11.7988
62.4,0.0036,5.2002,0.4376,11.8187
62.5,0.0036,5.2092,0.4376,11.839
62.6,0.0037,5.2173,0.4385,11.8575
62.7,0.0036,5.225,0.4381,11.875
62.8,0.0036,5.2331,0.4378,11.8935
62.9,0.0037,5.2423,0.4397,11.9143
63,0.0037,5.251,0.4392,11.9342
63.1,0.0037,5.2592,0.44,11.9527
63.2,0.0037,5.2667,0.4399,11.9697
63.3,0.0037,5.275,0.4394,11.9886
63.4,0.0037,5.284,0.4411,12.009
63.5,0.0037,5.2927,0.4407,12.0289
63.6,0.0037,5.3004,0.441,12.0464
63.7,0.0037,5.3081,0.4415,12.0639
63.8,0.0037,5.3165,0.4405,12.0829
63.9,0.0037,5.3256,0.4422,12.1037
64,0.0037,5.3344,0.4429,12.1236
64.1,0.0037,5.3419,0.4418,12.1406
64.2,0.0037,5.3496,0.4426,12.1581
64.3,0.0037,5.3583,0.4428,12.178
64.4,0.0037,5.3675,0.4433,12.1989
64.5,0.0037,5.376,0.4445,12.2183
64.6,0.0037,5.3837,0.4437,12.2358
64.7,0.0037,5.3915,0.4439,12.2533
64.8,0.0037,5.4002,0.4445,12.2732
64.9,0.0037,5.4092,0.4449,12.2936
65,0.0037,5.4177,0.4457,12.313
65.1,0.0037,5.4254,0.4456,12.3305
65.2,0.0037,5.4331,0.4448,12.348
65.3,0.0037,5.4421,0.4466,12.3684
65.4,0.0037,5.451,0.4461,12.3887
65.5,0.0037,5.4592,0.4464,12.4072
65.6,0.0037,5.4669,0.4472,12.4247
65.7,0.0037,5.4748,0.4459,12.4427
65.8,0.0037,5.484,0.448,12.4635
65.9,0.0037,5.4925,0.4477,12.483
66,0.0037,5.5006,0.4477,12.5014
66.1,0.0037,5.5083,0.4486,12.5189
66.2,0.0037,5.5165,0.4477,12.5374
66.3,0.0037,5.5254,0.4491,12.5578
66.4,0.0037,5.534,0.4492,12.5772
66.5,0.0037,5.5421,0.4488,12.5956
66.6,0.0037,5.55,0.4496,12.6136
66.7,0.0037,5.5583,0.4492,12.6326
66.8,0.0037,5.5671,0.4499,12.6525
66.9,0.0038,5.5756,0.4507,12.6719
67,0.0038,5.5837,0.4505,12.6903
67.1,0.0037,5.5919,0.4502,12.7088
67.2,0.0038,5.6002,0.4517,12.7277
67.3,0.0038,5.609,0.4508,12.7476
67.4,0.0038,5.6173,0.4522,12.7666
67.5,0.0038,5.6254,0.4521,12.785
67.6,0.0038,5.6335,0.4514,12.8035
67.7,0.0038,5.6419,0.4532,12.8224
67.8,0.0038,5.6506,0.4524,12.8423
67.9,0.0038,5.659,0.4532,12.8613
68,0.0038,5.6669,0.4536,12.8793
68.1,0.0038,5.6754,0.453,12.8987
68.2,0.0038,5.684,0.4545,12.9181
68.3,0.0038,5.6923,0.4543,12.937
68.4,0.0038,5.7004,0.454,12.9555
68.5,0.0038,5.7085,0.4552,12.974
68.6,0.0038,5.7169,0.4545,12.9929
68.7,0.0038,5.7254,0.4552,13.0123
68.8,0.0038,5.7337,0.4558,13.0312
68.9,0.0038,5.7417,0.455,13.0492
69,0.0038,5.75,0.4563,13.0682
69.1,0.0038,5.7587,0.4563,13.0881
69.2,0.0038,5.7671,0.4565,13.107
69.3,0.0038,5.7754,0.4572,13.1259
69.4,0.0038,5.7835,0.4567,13.1444
69.5,0.0038,5.7919,0.4571,13.1634
69.6,0.0038,5.8006,0.4584,13.1832
69.7,0.0038,5.8087,0.4575,13.2017
69.8,0.0038,5.8169,0.4586,13.2202
69.9,0.0038,5.8252,0.4587,13.2391
70,0.0038,5.8337,0.4583,13.2585
70.1,0.0038,5.8425,0.4602,13.2784
70.2,0.0038,5.8504,0.4589,13.2964
70.3,0.0038,5.8587,0.4595,13.3153
70.4,0.0038,5.8671,0.4603,13.3343
70.5,0.0038,5.8756,0.4594,13.3537
70.6,0.0038,5.8844,0.4613,13.3736
70.7,0.0038,5.8921,0.4603,13.3911
70.8,0.0038,5.9002,0.4605,13.4096
70.9,0.0038,5.9083,0.4614,13.428
71,0.0038,5.9171,0.4609,13.4479
71.1,0.0038,5.9256,0.4621,13.4673
71.2,0.0038,5.9335,0.4622,13.4853
71.3,0.0038,5.9415,0.4615,13.5033
71.4,0.0039,5.95,0.4626,13.5227
71.5,0.0039,5.959,0.4628,13.5431
71.6,0.0039,5.9673,0.4629,13.562
71.7,0.0039,5.975,0.4637,13.5795
71.8,0.0039,5.9831,0.4629,13.598
71.9,0.0039,5.9919,0.4634,13.6179
72,0.0039,6.0008,0.4648,13.6383
72.1,0.0039,6.0092,0.4639,13.6572
72.2,0.0039,6.0167,0.4649,13.6742
72.3,0.0039,6.0248,0.4645,13.6927
72.4,0.0039,6.0335,0.4647,13.7126
72.5,0.0039,6.0425,0.4664,13.733
72.6,0.0039,6.0508,0.4654,13.7519
72.7,0.0039,6.0583,0.4659,13.7689
72.8,0.0039,6.0665,0.4659,13.7874
72.9,0.0039,6.0756,0.4661,13.8082
73,0.0039,6.0844,0.4675,13.8281
73.1,0.0039,6.0923,0.4669,13.8461
73.2,0.0039,6.0998,0.4665,13.8632
73.3,0.0039,6.1081,0.4672,13.8821
73.4,0.0039,6.1171,0.4679,13.9025
73.5,0.0039,6.126,0.4681,13.9228
73.6,0.0039,6.134,0.4689,13.9408
73.7,0.0039,6.1417,0.4678,13.9583
73.8,0.0039,6.1498,0.4689,13.9768
73.9,0.0039,6.159,0.4689,13.9976
74,0.0039,6.1675,0.4691,14.017
74.1,0.0039,6.1754,0.4699,14.035
74.2,0.0039,6.1831,0.469,14.0526
74.3,0.0039,6.1917,0.4699,14.072
74.4,0.0039,6.2008,0.4707,14.0928
74.5,0.0039,6.2094,0.4701,14.1122
74.6,0.0039,6.2171,0.4715,14.1297
74.7,0.0039,6.2248,0.4703,14.1473
74.8,0.0039,6.2335,0.471,14.1671
74.9,0.0039,6.2425,0.4723,14.1875
75,0.0039,6.2508,0.4713,14.2064
75.1,0.0039,6.2587,0.4725,14.2244
75.2,0.0039,6.2662,0.4716,14.2415
75.3,0.0039,6.2754,0.4721,14.2623
75.4,0.0039,6.2844,0.4737,14.2827
75.5,0.0039,6.2925,0.4724,14.3011
75.6,0.0039,6.3004,0.4734,14.3191
75.7,0.0039,6.3081,0.4733,14.3366
75.8,0.0039,6.3171,0.4729,14.357
75.9,0.004,6.3256,0.4746,14.3764
76,0.0039,6.334,0.4738,14.3954
76.1,0.0039,6.3419,0.4739,14.4134
76.2,0.004,6.35,0.4747,14.4318
76.3,0.004,6.3587,0.4744,14.4517
76.4,0.004,6.3673,0.475,14.4711
76.5,0.004,6.3754,0.4759,14.4896
76.6,0.004,6.3833,0.4745,14.5076
76.7,0.004,6.3917,0.4763,14.5265
76.8,0.004,6.4006,0.4758,14.5469
76.9,0.004,6.4092,0.4762,14.5663
77,0.004,6.4173,0.4773,14.5848
77.1,0.004,6.4254,0.4757,14.6032
77.2,0.004,6.4335,0.4776,14.6217
77.3,0.004,6.4423,0.4774,14.6416
77.4,0.004,6.4506,0.4772,14.6605
77.5,0.004,6.4587,0.4783,14.679
77.6,0.004,6.4669,0.4774,14.6974
77.7,0.004,6.4752,0.478,14.7164
77.8,0.004,6.4837,0.4787,14.7358
77.9,0.004,6.4923,0.4785,14.7552
78,0.004,6.5002,0.479,14.7732
78.1,0.004,6.5085,0.4792,14.7921
78.2,0.004,6.5171,0.4789,14.8116
78.3,0.004,6.5256,0.4804,14.831
78.4,0.004,6.5335,0.4795,14.849
78.5,0.004,6.5417,0.48,14.8674
78.6,0.004,6.5504,0.4807,14.8873
78.7,0.004,6.559,0.4801,14.9067
78.8,0.004,6.5673,0.4813,14.9257
78.9,0.004,6.5752,0.4809,14.9437
79,0.004,6.5833,0.4803,14.9621
79.1,0.004,6.5921,0.4818,14.982
79.2,0.004,6.6004,0.4814,15.0009
79.3,0.004,6.6087,0.482,15.0199
79.4,0.004,6.6169,0.4822,15.0384
79.5,0.004,6.6252,0.4818,15.0573
79.6,0.004,6.6342,0.4833,15.0776
79.7,0.004,6.6423,0.4825,15.0961
79.8,0.004,6.6504,0.4831,15.1146
79.9,0.004,6.6585,0.4835,15.133
80,0.004,6.6669,0.4829,15.152
80.1,0.004,6.6758,0.4842,15.1723
80.2,0.004,6.684,0.4841,15.1908
80.3,0.004,6.6921,0.4836,15.2093
80.4,0.004,6.7002,0.4848,15.2277
80.5,0.004,6.7087,0.4843,15.2472
80.6,0.004,6.7175,0.4849,15.267
80.7,0.004,6.7256,0.4853,15.2855
80.8,0.004,6.7335,0.4847,15.3035
80.9,0.004,6.7417,0.4855,15.322
81,0.004,6.7504,0.4856,15.3419
81.1,0.004,6.759,0.486,15.3613
81.2,0.0041,6.7669,0.4865,15.3793
81.3,0.004,6.7748,0.4859,15.3973
81.4,0.004,6.7831,0.4862,15.4162
81.5,0.0041,6.7921,0.4875,15.4366
81.6,0.0041,6.8006,0.4863,15.456
81.7,0.0041,6.8085,0.4879,15.474
81.8,0.0041,6.8167,0.4868,15.4924
81.9,0.0041,6.8252,0.4871,15.5118
82,0.0041,6.8342,0.4888,15.5322
82.1,0.0041,6.8425,0.4878,15.5511
82.2,0.0041,6.8502,0.4887,15.5687
82.3,0.0041,6.8583,0.4881,15.5871
82.4,0.0041,6.8669,0.4885,15.6065
82.5,0.0041,6.8758,0.4899,15.6269
82.6,0.0041,6.884,0.4887,15.6454
82.7,0.0041,6.8917,0.4895,15.6629
82.8,0.0041,6.8998,0.4894,15.6813
82.9,0.0041,6.909,0.4896,15.7022
83,0.0041,6.9177,0.4909,15.7221
83.1,0.0041,6.9258,0.4904,15.7405
83.2,0.0041,6.9333,0.4899,15.7576
83.3,0.0041,6.9417,0.4908,15.7765
83.4,0.0041,6.9506,0.4907,15.7969
83.5,0.0041,6.9592,0.4913,15.8163
83.6,0.0041,6.9671,0.4916,15.8343
83.7,0.0041,6.9748,0.4905,15.8518
83.8,0.0041,6.9831,0.492,15.8707
83.9,0.0041,6.9923,0.4917,15.8916
84,0.0041,7.0008,0.4922,15.911
84.1,0.0041,7.0087,0.4931,15.929
84.2,0.0041,7.0165,0.4915,15.9465
84.3,0.0041,7.0252,0.4934,15.9664
84.4,0.0041,7.0342,0.4933,15.9867
84.5,0.0041,7.0425,0.493,16.0057
84.6,0.0041,7.0504,0.4942,16.0237
84.7,0.0041,7.0581,0.4931,16.0412
84.8,0.0041,7.0669,0.4939,16.0611
84.9,0.0041,7.0758,0.4947,16.0814
85,0.0041,7.0842,0.4941,16.1004
85.1,0.0041,7.0921,0.4953,16.1184
85.2,0.0041,7.0998,0.4941,16.1359
85.3,0.0041,7.109,0.495,16.1567
85.4,0.0041,7.1177,0.4962,16.1766
85.5,0.0041,7.1256,0.4949,16.1946
85.6,0.0041,7.1337,0.4957,16.2131
85.7,0.0041,7.1417,0.4957,16.2311
85.8,0.0041,7.1506,0.4953,16.2514
85.9,0.0041,7.1592,0.4971,16.2708
86,0.0041,7.1671,0.4962,16.2888
86.1,0.0041,7.175,0.496,16.3068
86.2,0.0041,7.1831,0.497,16.3253
86.3,0.0041,7.1921,0.4964,16.3456
86.4,0.0041,7.2004,0.4978,16.3646
86.5,0.0041,7.2085,0.4973,16.383
86.6,0.0041,7.2167,0.4968,16.4015
86.7,0.0042,7.225,0.4983,16.4205
86.8,0.0041,7.234,0.4975,16.4408
86.9,0.0042,7.2423,0.4985,16.4598
87,0.0042,7.2504,0.4993,16.4782
87.1,0.0041,7.2585,0.4978,16.4967
87.2,0.0042,7.2669,0.4995,16.5156
87.3,0.0042,7.2756,0.4993,16.5355
87.4,0.0042,7.284,0.4995,16.5544
87.5,0.0042,7.2919,0.4999,16.5724
87.6,0.0042,7.3002,0.4992,16.5914
87.7,0.0042,7.3087,0.5004,16.6108
87.8,0.0042,7.3173,0.5004,16.6302
87.9,0.0042,7.3254,0.4999,16.6487
88,0.0042,7.3335,0.5013,16.6671
88.1,0.0042,7.3421,0.5004,16.6866
88.2,0.0042,7.3506,0.5012,16.706
88.3,0.0042,7.359,0.5017,16.7249
88.4,0.0042,7.3671,0.5011,16.7434
88.5,0.0042,7.3752,0.502,16.7618
88.6,0.0042,7.3837,0.5019,16.7812
88.7,0.0042,7.3923,0.5019,16.8007
88.8,0.0042,7.4004,0.5028,16.8191
88.9,0.0042,7.4083,0.502,16.8371
89,0.0042,7.4165,0.5023,16.8556
89.1,0.0042,7.4252,0.5032,16.8755
89.2,0.0042,7.4337,0.5025,16.8949
89.3,0.0042,7.4421,0.5042,16.9138
89.4,0.0042,7.4502,0.5029,16.9323
89.5,0.0042,7.4585,0.5034,16.9512
89.6,0.0042,7.4675,0.5048,16.9716
89.7,0.0042,7.4756,0.5032,16.9901
89.8,0.0042,7.4837,0.5054,17.0085
89.9,0.0042,7.4921,0.5039,17.0275
90,0.0042,7.5004,0.5045,17.0464
90.1,0.0042,7.5092,0.5055,17.0663
90.2,0.0042,7.5171,0.5044,17.0843
90.3,0.0042,7.5252,0.5054,17.1027
90.4,0.0042,7.5337,0.5051,17.1222
90.5,0.0042,7.5421,0.5052,17.1411
90.6,0.0042,7.5508,0.5063,17.161
90.7,0.0042,7.5587,0.5056,17.179
90.8,0.0042,7.5669,0.5058,17.1974
90.9,0.0042,7.575,0.5064,17.2159
91,0.0042,7.584,0.5061,17.2363
91.1,0.0042,7.5923,0.5071,17.2552
91.2,0.0042,7.6,0.5068,17.2727
91.3,0.0042,7.6081,0.506,17.2912
91.4,0.0042,7.6165,0.5075,17.3101
91.5,0.0042,7.6256,0.5071,17.331
91.6,0.0042,7.6342,0.5083,17.3504
91.7,0.0042,7.6419,0.508,17.3679
91.8,0.0042,7.65,0.5073,17.3864
91.9,0.0042,7.6585,0.5086,17.4058
92,0.0042,7.6675,0.5082,17.4261
92.1,0.0042,7.6758,0.5089,17.4451
92.2,0.0042,7.6833,0.5089,17.4621
92.3,0.0042,7.6917,0.508,17.4811
92.4,0.0042,7.7004,0.5096,17.5009
92.5,0.0042,7.7094,0.5092,17.5213
92.6,0.0042,7.7175,0.5096,17.5398
92.7,0.0042,7.725,0.5096,17.5568
92.8,0.0042,7.7331,0.509,17.5753
92.9,0.0042,7.7423,0.5102,17.5961
93,0.0043,7.751,0.5104,17.616
93.1,0.0042,7.759,0.5101,17.634
93.2,0.0043,7.7667,0.5106,17.6515
93.3,0.0042,7.775,0.5094,17.6705
93.4,0.0043,7.784,0.5111,17.6908
93.5,0.0043,7.7927,0.5114,17.7107
93.6,0.0043,7.8004,0.5107,17.7282
93.7,0.0043,7.8079,0.5112,17.7453
93.8,0.0043,7.8165,0.5108,17.7647
93.9,0.0043,7.8254,0.5116,17.785
94,0.0043,7.8342,0.5123,17.8049
94.1,0.0043,7.8421,0.5114,17.8229
94.2,0.0043,7.8498,0.5118,17.8404
94.3,0.0043,7.8583,0.5117,17.8598
94.4,0.0043,7.8675,0.5121,17.8807
94.5,0.0043,7.876,0.5132,17.9001
94.6,0.0043,7.8837,0.5121,17.9176
94.7,0.0043,7.8915,0.5125,17.9351
94.8,0.0043,7.9004,0.513,17.9555
94.9,0.0043,7.9092,0.5123,17.9754
95,0.0043,7.9175,0.5139,17.9943
95.1,0.0043,7.9254,0.5127,18.0123
95.2,0.0043,7.9331,0.5125,18.0298
95.3,0.0043,7.9421,0.5138,18.0502
95.4,0.0043,7.951,0.5131,18.0705
95.5,0.0043,7.959,0.5144,18.0885
95.6,0.0043,7.9671,0.5132,18.107
95.7,0.0043,7.9748,0.5132,18.1245
95.8,0.0043,7.9837,0.5146,18.1449
95.9,0.0043,7.9923,0.5131,18.1643
96,0.0043,8.0004,0.5148,18.1828
96.1,0.0043,8.0083,0.5136,18.2008
96.2,0.0043,8.0165,0.5133,18.2192
96.3,0.0043,8.0254,0.5146,18.2396
96.4,0.0043,8.034,0.5137,18.259
96.5,0.0043,8.0421,0.5142,18.2775
96.6,0.0043,8.05,0.5142,18.2955
96.7,0.0043,8.0583,0.5133,18.3144
96.8,0.0043,8.0673,0.5146,18.3348
96.9,0.0043,8.0756,0.5141,18.3537
97,0.0043,8.0837,0.5137,18.3722
97.1,0.0043,8.0919,0.5142,18.3906
97.2,0.0043,8.1004,0.5132,18.41
97.3,0.0043,8.109,0.5138,18.4294
97.4,0.0043,8.1173,0.5142,18.4484
97.5,0.0043,8.1252,0.5126,18.4664
97.6,0.0043,8.1333,0.5143,18.4848
97.7,0.0043,8.1419,0.5128,18.5043
97.8,0.0043,8.1506,0.5135,18.5241
97.9,0.0043,8.1587,0.514,18.5426
98,0.0043,8.1669,0.5124,18.5611
98.1,0.0043,8.1752,0.5135,18.58
98.2,0.0043,8.1837,0.5129,18.5994
98.3,0.0043,8.1923,0.5128,18.6188
98.4,0.0043,8.2004,0.5135,18.6373
98.5,0.0043,8.2085,0.5115,18.6558
98.6,0.0043,8.2171,0.5131,18.6752
98.7,0.0043,8.2254,0.5123,18.6941
98.8,0.0043,8.2335,0.5115,18.7126
98.9,0.0043,8.2417,0.5121,18.7311
99,0.0043,8.25,0.5106,18.75
99.1,0.0043,8.2585,0.5114,18.7694
99.2,0.0043,8.2671,0.5108,18.7888
99.3,0.0042,8.2754,0.5101,18.8078
99.4,0.0043,8.2835,0.5104,18.8262
99.5,0.0042,8.2919,0.5087,18.8452
99.6,0.0042,8.3008,0.5092,18.8655
99.7,0.0042,8.309,0.5083,18.884
99.8,0.0042,8.3171,0.5058,18.9025
99.9,0.0042,8.3252,0.5065,18.9209
100,0.0042,8.3337,0.5042,18.9403
100.1,0.0042,8.3425,0.5029,18.9602
100.2,0.0042,8.3504,0.5021,18.9782
100.3,0.0042,8.3585,0.4992,18.9967
100.4,0.0041,8.3669,0.4981,19.0156
100.5,0.0041,8.3754,0.4964,19.035
100.6,0.0041,8.3842,0.4938,19.0549
100.7,0.0041,8.3921,0.4925,19.0729
100.8,0.0041,8.4002,0.4889,19.0914
100.9,0.0041,8.4083,0.4865,19.1098
101,0.004,8.4173,0.4841,19.1302
101.1,0.004,8.4256,0.4792,19.1491
101.2,0.004,8.4335,0.4752,19.1671
101.3,0.0039,8.4415,0.4679,19.1851
101.4,0.0038,8.45,0.4587,19.2045
101.5,0.0037,8.459,0.4447,19.2249
101.6,0.0034,8.4673,0.4066,19.2438
101.7,-0.0001,8.475,-0.0092,19.2614
101.8,0,8.4833,-0.0014,19.2803
101.9,0,8.4919,-0.002,19.2997
102,0,8.501,-0.001,19.3205
102.1,0,8.5092,-0.0018,19.339
102.2,0,8.5167,-0.0017,19.3561
102.3,0,8.5248,-0.001,19.3745
102.4,0,8.5337,-0.0015,19.3949
102.5,0,8.5427,-0.0012,19.4152
102.6,0,8.5508,-0.0017,19.4337
102.7,0,8.5583,-0.0011,19.4508
102.8,0,8.5665,-0.0016,19.4692
102.9,0,8.5754,-0.0017,19.4896
103,0,8.5844,-0.001,19.5099
103.1,0,8.5923,-0.0022,19.5279
103.2,0,8.5998,-0.0013,19.545
103.3,0,8.6083,-0.0006,19.5644
103.4,0,8.6173,-0.0023,19.5848
103.5,0,8.626,-0.0009,19.6046
103.6,0,8.6337,-0.0011,19.6222
103.7,0,8.6412,-0.0023,19.6392
103.8,0,8.6498,-0.0003,19.6586
103.9,0,8.659,-0.0017,19.6794
104,0,8.6675,-0.0018,19.6989
104.1,0,8.6754,-0.0005,19.7169
104.2,0,8.6829,-0.0021,19.7339
104.3,0,8.6917,-0.0007,19.7538
104.4,0,8.7008,-0.0018,19.7746
104.5,0,8.7094,-0.0012,19.794
104.6,0,8.7171,-0.0012,19.8115
104.7,0,8.7248,-0.0018,19.8291
104.8,0,8.7335,-0.001,19.849
104.9,0,8.7427,-0.0018,19.8698
104.912,0,8.7437,-0.0023,19.8722